<?xml version="1.0" ?>
<ODM xmlns:def="http://www.cdisc.org/ns/def/v2.1" xmlns:mdr="https://www.cdisc.org/ns/mdr/c360"
    xmlns="http://www.cdisc.org/ns/odm/v1.3" CreationDateTime="2020-11-11T16:06:50.615402"
    FileOID="[CDISC LIBRARY- SDTMIG-3-2]" FileType="Snapshot" def:Context="Other">
    <Study OID="[C360.Library.Example.SDTMIG-3-2]">
        <GlobalVariables>
            <StudyName>CDISC 360</StudyName>
            <StudyDescription>CLIB BC Examples</StudyDescription>
            <ProtocolName>C360 WS1 BC Definitions</ProtocolName>
        </GlobalVariables>
        <MetaDataVersion OID="MDV01" Name="CDISC Library MetaData" def:DefineVersion="2.1.0"
            xmlns:def="http://www.cdisc.org/ns/def/v2.1">
            <def:Standards>
                <def:Standard OID="C360.SDTMIG-VERS" Name="SDTMIG" Type="IG" Status="Final"
                    Version="3-2"/>
                <def:Standard OID="C360.std.BCDMSubject(C70665)" Name="DM-Subject (C70665)"
                    Type="C360 Biomedical Concept" Status="Draft" Version="1-0"/>
                <def:Standard OID="C360.std.BCECECTRT" Name="EC-ECTRT-Human Insulin"
                    Type="C360 Biomedical Concept" Status="Draft" Version="1-0"/>
                <def:Standard OID="C360.std.BCDSProtocolMilestone" Name="DS-Protocol Milestone"
                    Type="C360 Biomedical Concept" Status="Draft" Version="1-0"/>
                <def:Standard OID="C360.std.BCDSDispositionEvent" Name="DS-DispositionEvent"
                    Type="C360 Biomedical Concept" Status="Draft" Version="1-0"/>
                <def:Standard OID="C360.std.BCAEAdverseEvent" Name="AE-Adverse Event"
                    Type="C360 Biomedical Concept" Status="Draft" Version="1-0"/>
                <def:Standard OID="C360.std.BCVSBodyMassIndex" Name="VS-Body Mass Index"
                    Type="C360 Biomedical Concept" Status="Draft" Version="1-0"/>
                <def:Standard OID="C360.std.BCVSSystolicBloodPressure"
                    Name="VS-Systolic Blood Pressure" Type="C360 Biomedical Concept" Status="Draft"
                    Version="1-0"/>
                <def:Standard OID="C360.std.BCVSDiastolicBloodPressure"
                    Name="VS-Diastolic Blood Pressure" Type="C360 Biomedical Concept" Status="Draft"
                    Version="1-0"/>
                <def:Standard OID="C360.std.BCVSWeight" Name="VS-Weight"
                    Type="C360 Biomedical Concept" Status="Draft" Version="1-0"/>
                <def:Standard OID="C360.std.BCVSHeight" Name="VS-Height"
                    Type="C360 Biomedical Concept" Status="Draft" Version="1-0"/>
            </def:Standards>
            <def:ValueListDef OID="C360.VLM.DSSTDY">
                <ItemRef ItemOID="C360.BC.VLM.ProtocolMilestone.DSTERM.DSSTDY.DSSTDY"
                    OrderNumber="1" Mandatory="Yes">
                    <def:WhereClauseRef
                        WhereClauseOID="C360.WC.BCDSProtocolMilestone.DSCAT.PROTOCOL_MILESTONE"/>
                </ItemRef>
                <ItemRef ItemOID="C360.BC.VLM.DispositionEvent.DSTERM.DSSTDY.DSSTDY" OrderNumber="2"
                    Mandatory="Yes">
                    <def:WhereClauseRef
                        WhereClauseOID="C360.WC.BCDSDispositionEvent.DSCAT.DISPOSITION_EVENT"/>
                </ItemRef>
            </def:ValueListDef>
            <def:ValueListDef OID="C360.VLM.DSTERM">
                <ItemRef ItemOID="C360.BC.VLM.ProtocolMilestone.DSTERM.DSTERM.DSTERM"
                    OrderNumber="1" Mandatory="Yes">
                    <def:WhereClauseRef
                        WhereClauseOID="C360.WC.BCDSProtocolMilestone.DSCAT.PROTOCOL_MILESTONE"/>
                </ItemRef>
                <ItemRef ItemOID="C360.BC.VLM.DispositionEvent.DSTERM.DSTERM.DSTERM" OrderNumber="2"
                    Mandatory="Yes">
                    <def:WhereClauseRef
                        WhereClauseOID="C360.WC.BCDSDispositionEvent.DSCAT.DISPOSITION_EVENT"/>
                </ItemRef>
            </def:ValueListDef>
            <def:ValueListDef OID="C360.VLM.DSDECOD">
                <ItemRef ItemOID="C360.BC.VLM.ProtocolMilestone.DSTERM.DSDECOD.DSDECOD"
                    OrderNumber="1" Mandatory="Yes">
                    <def:WhereClauseRef
                        WhereClauseOID="C360.WC.BCDSProtocolMilestone.DSCAT.PROTOCOL_MILESTONE"/>
                </ItemRef>
                <ItemRef ItemOID="C360.BC.VLM.DispositionEvent.DSTERM.DSDECOD.DSDECOD"
                    OrderNumber="2" Mandatory="Yes">
                    <def:WhereClauseRef
                        WhereClauseOID="C360.WC.BCDSDispositionEvent.DSCAT.DISPOSITION_EVENT"/>
                </ItemRef>
            </def:ValueListDef>
            <def:ValueListDef OID="C360.VLM.DSCAT">
                <ItemRef ItemOID="C360.BC.VLM.ProtocolMilestone.DSTERM.DSCAT.DSCAT" OrderNumber="1"
                    Mandatory="Yes">
                    <def:WhereClauseRef
                        WhereClauseOID="C360.WC.BCDSProtocolMilestone.DSCAT.PROTOCOL_MILESTONE"/>
                </ItemRef>
                <ItemRef ItemOID="C360.BC.VLM.DispositionEvent.DSTERM.DSCAT.DSCAT" OrderNumber="2"
                    Mandatory="Yes">
                    <def:WhereClauseRef
                        WhereClauseOID="C360.WC.BCDSDispositionEvent.DSCAT.DISPOSITION_EVENT"/>
                </ItemRef>
            </def:ValueListDef>
            <def:ValueListDef OID="C360.VLM.DSSTDTC">
                <ItemRef ItemOID="C360.BC.VLM.ProtocolMilestone.DSTERM.DSSTDTC.DSSTDTC"
                    OrderNumber="1" Mandatory="Yes" MethodOID="C360.MTH.DSSTDTC-PROTOCOLMILESTONE">
                    <def:WhereClauseRef
                        WhereClauseOID="C360.WC.BCDSProtocolMilestone.DSCAT.PROTOCOL_MILESTONE"/>
                </ItemRef>
                <ItemRef ItemOID="C360.BC.VLM.DispositionEvent.DSTERM.DSSTDTC.DSSTDTC"
                    OrderNumber="2" Mandatory="Yes" MethodOID="C360.MTH.DSSTDTC-DISPOSITIONEVENT">
                    <def:WhereClauseRef
                        WhereClauseOID="C360.WC.BCDSDispositionEvent.DSCAT.DISPOSITION_EVENT"/>
                </ItemRef>
            </def:ValueListDef>
            <def:ValueListDef OID="C360.VLM.EPOCH">
                <ItemRef ItemOID="C360.BC.VLM.DispositionEvent.DSTERM.EPOCH.EPOCH" OrderNumber="1"
                    Mandatory="Yes" MethodOID="C360.MTH.EPOCH-DISPOSITIONEVENT">
                    <def:WhereClauseRef
                        WhereClauseOID="C360.WC.BCDSDispositionEvent.DSCAT.DISPOSITION_EVENT"/>
                </ItemRef>
            </def:ValueListDef>
            <def:ValueListDef OID="C360.VLM.VSSTRESN">
                <ItemRef ItemOID="C360.BC.VLM.BodyMassIndex.VSTESTCD.VSSTRESN.VSSTRESN"
                    OrderNumber="1" Mandatory="Yes" MethodOID="C360.MTH.VSSTRESN-BODYMASSINDEX">
                    <def:WhereClauseRef WhereClauseOID="C360.WC.BCVSBodyMassIndex.VSTESTCD.BMI"/>
                </ItemRef>
                <ItemRef ItemOID="C360.BC.VLM.SystolicBloodPressure.VSTESTCD.VSSTRESN.VSSTRESN"
                    OrderNumber="2" Mandatory="Yes"
                    MethodOID="C360.MTH.VSSTRESN-SYSTOLICBLOODPRESSURE">
                    <def:WhereClauseRef
                        WhereClauseOID="C360.WC.BCVSSystolicBloodPressure.VSTESTCD.SYSBP"/>
                </ItemRef>
                <ItemRef ItemOID="C360.BC.VLM.DiastolicBloodPressure.VSTESTCD.VSSTRESN.VSSTRESN"
                    OrderNumber="3" Mandatory="Yes"
                    MethodOID="C360.MTH.VSSTRESN-DIASTOLICBLOODPRESSURE">
                    <def:WhereClauseRef
                        WhereClauseOID="C360.WC.BCVSDiastolicBloodPressure.VSTESTCD.DIABP"/>
                </ItemRef>
                <ItemRef ItemOID="C360.BC.VLM.Weight.VSTESTCD.VSSTRESN.VSSTRESN" OrderNumber="4"
                    Mandatory="Yes" MethodOID="C360.MTH.VSSTRESN-WEIGHT">
                    <def:WhereClauseRef WhereClauseOID="C360.WC.BCVSWeight.VSTESTCD.WEIGHT"/>
                </ItemRef>
                <ItemRef ItemOID="C360.BC.VLM.Height.VSTESTCD.VSSTRESN.VSSTRESN" OrderNumber="5"
                    Mandatory="Yes" MethodOID="C360.MTH.VSSTRESN-HEIGHT">
                    <def:WhereClauseRef WhereClauseOID="C360.WC.BCVSHeight.VSTESTCD.HEIGHT"/>
                </ItemRef>
            </def:ValueListDef>
            <def:ValueListDef OID="C360.VLM.VSTESTCD">
                <ItemRef ItemOID="C360.BC.VLM.BodyMassIndex.VSTESTCD.VSTEST.VSTESTCD"
                    OrderNumber="1" Mandatory="Yes">
                    <def:WhereClauseRef WhereClauseOID="C360.WC.BCVSBodyMassIndex.VSTESTCD.BMI"/>
                </ItemRef>
                <ItemRef ItemOID="C360.BC.VLM.SystolicBloodPressure.VSTESTCD.VSTESTCD.VSTESTCD"
                    OrderNumber="2" Mandatory="Yes">
                    <def:WhereClauseRef
                        WhereClauseOID="C360.WC.BCVSSystolicBloodPressure.VSTESTCD.SYSBP"/>
                </ItemRef>
                <ItemRef ItemOID="C360.BC.VLM.DiastolicBloodPressure.VSTESTCD.VSTEST.VSTESTCD"
                    OrderNumber="3" Mandatory="Yes">
                    <def:WhereClauseRef
                        WhereClauseOID="C360.WC.BCVSDiastolicBloodPressure.VSTESTCD.DIABP"/>
                </ItemRef>
                <ItemRef ItemOID="C360.BC.VLM.Weight.VSTESTCD.VSTESTCD.VSTESTCD" OrderNumber="4"
                    Mandatory="Yes">
                    <def:WhereClauseRef WhereClauseOID="C360.WC.BCVSWeight.VSTESTCD.WEIGHT"/>
                </ItemRef>
                <ItemRef ItemOID="C360.BC.VLM.Height.VSTESTCD.VSTEST.VSTESTCD" OrderNumber="5"
                    Mandatory="Yes">
                    <def:WhereClauseRef WhereClauseOID="C360.WC.BCVSHeight.VSTESTCD.HEIGHT"/>
                </ItemRef>
            </def:ValueListDef>
            <def:ValueListDef OID="C360.VLM.VSSTRESU">
                <ItemRef ItemOID="C360.BC.VLM.BodyMassIndex.VSTESTCD.VSSTRESU.VSSTRESU"
                    OrderNumber="1" Mandatory="Yes">
                    <def:WhereClauseRef WhereClauseOID="C360.WC.BCVSBodyMassIndex.VSTESTCD.BMI"/>
                </ItemRef>
                <ItemRef ItemOID="C360.BC.VLM.SystolicBloodPressure.VSTESTCD.VSSTRESU.VSSTRESU"
                    OrderNumber="2" Mandatory="Yes">
                    <def:WhereClauseRef
                        WhereClauseOID="C360.WC.BCVSSystolicBloodPressure.VSTESTCD.SYSBP"/>
                </ItemRef>
                <ItemRef ItemOID="C360.BC.VLM.DiastolicBloodPressure.VSTESTCD.VSSTRESU.VSSTRESU"
                    OrderNumber="3" Mandatory="Yes">
                    <def:WhereClauseRef
                        WhereClauseOID="C360.WC.BCVSDiastolicBloodPressure.VSTESTCD.DIABP"/>
                </ItemRef>
                <ItemRef ItemOID="C360.BC.VLM.Weight.VSTESTCD.VSSTRESU.VSSTRESU" OrderNumber="4"
                    Mandatory="Yes">
                    <def:WhereClauseRef WhereClauseOID="C360.WC.BCVSWeight.VSTESTCD.WEIGHT"/>
                </ItemRef>
                <ItemRef ItemOID="C360.BC.VLM.Height.VSTESTCD.VSSTRESU.VSSTRESU" OrderNumber="5"
                    Mandatory="Yes">
                    <def:WhereClauseRef WhereClauseOID="C360.WC.BCVSHeight.VSTESTCD.HEIGHT"/>
                </ItemRef>
            </def:ValueListDef>
            <def:ValueListDef OID="C360.VLM.VSDTC">
                <ItemRef ItemOID="C360.BC.VLM.BodyMassIndex.VSTESTCD.VSDT.VSDTC" OrderNumber="1"
                    Mandatory="Yes">
                    <def:WhereClauseRef WhereClauseOID="C360.WC.BCVSBodyMassIndex.VSTESTCD.BMI"/>
                </ItemRef>
                <ItemRef ItemOID="C360.BC.VLM.SystolicBloodPressure.VSTESTCD.VSDT.VSDTC"
                    OrderNumber="2" Mandatory="Yes">
                    <def:WhereClauseRef
                        WhereClauseOID="C360.WC.BCVSSystolicBloodPressure.VSTESTCD.SYSBP"/>
                </ItemRef>
                <ItemRef ItemOID="C360.BC.VLM.DiastolicBloodPressure.VSTESTCD.VSDT.VSDTC"
                    OrderNumber="3" Mandatory="Yes">
                    <def:WhereClauseRef
                        WhereClauseOID="C360.WC.BCVSDiastolicBloodPressure.VSTESTCD.DIABP"/>
                </ItemRef>
                <ItemRef ItemOID="C360.BC.VLM.Weight.VSTESTCD.VSDT.VSDTC" OrderNumber="4"
                    Mandatory="Yes">
                    <def:WhereClauseRef WhereClauseOID="C360.WC.BCVSWeight.VSTESTCD.WEIGHT"/>
                </ItemRef>
                <ItemRef ItemOID="C360.BC.VLM.Height.VSTESTCD.VSDT.VSDTC" OrderNumber="5"
                    Mandatory="Yes">
                    <def:WhereClauseRef WhereClauseOID="C360.WC.BCVSHeight.VSTESTCD.HEIGHT"/>
                </ItemRef>
            </def:ValueListDef>
            <def:ValueListDef OID="C360.VLM.VSPOS">
                <ItemRef ItemOID="C360.BC.VLM.SystolicBloodPressure.VSTESTCD.VSPOS.VSPOS"
                    OrderNumber="1" Mandatory="Yes">
                    <def:WhereClauseRef
                        WhereClauseOID="C360.WC.BCVSSystolicBloodPressure.VSTESTCD.SYSBP"/>
                </ItemRef>
                <ItemRef ItemOID="C360.BC.VLM.DiastolicBloodPressure.VSTESTCD.VSPOS.VSPOS"
                    OrderNumber="2" Mandatory="Yes">
                    <def:WhereClauseRef
                        WhereClauseOID="C360.WC.BCVSDiastolicBloodPressure.VSTESTCD.DIABP"/>
                </ItemRef>
                <ItemRef ItemOID="C360.BC.VLM.Weight.VSTESTCD.VSPOS.VSPOS" OrderNumber="3"
                    Mandatory="Yes">
                    <def:WhereClauseRef WhereClauseOID="C360.WC.BCVSWeight.VSTESTCD.WEIGHT"/>
                </ItemRef>
                <ItemRef ItemOID="C360.BC.VLM.Height.VSTESTCD.VSPOS.VSPOS" OrderNumber="4"
                    Mandatory="Yes">
                    <def:WhereClauseRef WhereClauseOID="C360.WC.BCVSHeight.VSTESTCD.HEIGHT"/>
                </ItemRef>
            </def:ValueListDef>
            <def:ValueListDef OID="C360.VLM.VSLAT">
                <ItemRef ItemOID="C360.BC.VLM.SystolicBloodPressure.VSTESTCD.VSLAT.VSLAT"
                    OrderNumber="1" Mandatory="Yes">
                    <def:WhereClauseRef
                        WhereClauseOID="C360.WC.BCVSSystolicBloodPressure.VSTESTCD.SYSBP"/>
                </ItemRef>
                <ItemRef ItemOID="C360.BC.VLM.DiastolicBloodPressure.VSTESTCD.VSLAT.VSLAT"
                    OrderNumber="2" Mandatory="Yes">
                    <def:WhereClauseRef
                        WhereClauseOID="C360.WC.BCVSDiastolicBloodPressure.VSTESTCD.DIABP"/>
                </ItemRef>
            </def:ValueListDef>
            <def:ValueListDef OID="C360.VLM.VSLOC">
                <ItemRef ItemOID="C360.BC.VLM.SystolicBloodPressure.VSTESTCD.VSLOC.VSLOC"
                    OrderNumber="1" Mandatory="Yes">
                    <def:WhereClauseRef
                        WhereClauseOID="C360.WC.BCVSSystolicBloodPressure.VSTESTCD.SYSBP"/>
                </ItemRef>
                <ItemRef ItemOID="C360.BC.VLM.DiastolicBloodPressure.VSTESTCD.VSLOC.VSLOC"
                    OrderNumber="2" Mandatory="Yes">
                    <def:WhereClauseRef
                        WhereClauseOID="C360.WC.BCVSDiastolicBloodPressure.VSTESTCD.DIABP"/>
                </ItemRef>
            </def:ValueListDef>
            <def:WhereClauseDef OID="C360.WC.BCDSProtocolMilestone.DSCAT.PROTOCOL_MILESTONE">
                <RangeCheck SoftHard="Soft" Comparator="EQ" def:ItemOID="C360.DS.IT.DSCAT">
                    <CheckValue>PROTOCOL_MILESTONE</CheckValue>
                </RangeCheck>
            </def:WhereClauseDef>
            <def:WhereClauseDef OID="C360.WC.BCDSDispositionEvent.DSCAT.DISPOSITION_EVENT">
                <RangeCheck SoftHard="Soft" Comparator="EQ" def:ItemOID="C360.DS.IT.DSCAT">
                    <CheckValue>DISPOSITION_EVENT</CheckValue>
                </RangeCheck>
            </def:WhereClauseDef>
            <def:WhereClauseDef OID="C360.WC.BCVSBodyMassIndex.VSTESTCD.BMI">
                <RangeCheck SoftHard="Soft" Comparator="EQ" def:ItemOID="C360.VS.IT.VSTESTCD">
                    <CheckValue>BMI</CheckValue>
                </RangeCheck>
            </def:WhereClauseDef>
            <def:WhereClauseDef OID="C360.WC.BCVSSystolicBloodPressure.VSTESTCD.SYSBP">
                <RangeCheck SoftHard="Soft" Comparator="EQ" def:ItemOID="C360.VS.IT.VSTESTCD">
                    <CheckValue>SYSBP</CheckValue>
                </RangeCheck>
            </def:WhereClauseDef>
            <def:WhereClauseDef OID="C360.WC.BCVSDiastolicBloodPressure.VSTESTCD.DIABP">
                <RangeCheck SoftHard="Soft" Comparator="EQ" def:ItemOID="C360.VS.IT.VSTESTCD">
                    <CheckValue>DIABP</CheckValue>
                </RangeCheck>
            </def:WhereClauseDef>
            <def:WhereClauseDef OID="C360.WC.BCVSWeight.VSTESTCD.WEIGHT">
                <RangeCheck SoftHard="Soft" Comparator="EQ" def:ItemOID="C360.VS.IT.VSTESTCD">
                    <CheckValue>WEIGHT</CheckValue>
                </RangeCheck>
            </def:WhereClauseDef>
            <def:WhereClauseDef OID="C360.WC.BCVSHeight.VSTESTCD.HEIGHT">
                <RangeCheck SoftHard="Soft" Comparator="EQ" def:ItemOID="C360.VS.IT.VSTESTCD">
                    <CheckValue>HEIGHT</CheckValue>
                </RangeCheck>
            </def:WhereClauseDef>
            <ItemGroupDef
                OID="C360.SDTM.DS.https://cdisc-mdsp-qa.nurocorcloud.com/api/mdr/sdtmig/3-2/datasets/DM"
                Name="DM" Purpose="C360 Biomedical Concept" Repeating="No"
                def:Structure="One record per subject" def:StandardOID="C360.SDTMIG-VERS">
                <Description>
                    <TranslatedText>Demographics</TranslatedText>
                </Description>
                <ItemRef ItemOID="C360.DM.IT.DOMAIN" OrderNumber="1" Mandatory="Yes" mdr:Core="Req"
                    xmlns:mdr="https://www.cdisc.org/ns/mdr/c360" Role="Identifier"/>
                <ItemRef ItemOID="C360.DM.IT.USUBJID" OrderNumber="2" Mandatory="Yes" mdr:Core="Req"
                    xmlns:mdr="https://www.cdisc.org/ns/mdr/c360" Role="Identifier"
                    MethodOID="C360.MTH.C360.DM.IT.USUBJID"/>
                <ItemRef ItemOID="C360.DM.IT.SUBJID" OrderNumber="3" Mandatory="Yes" mdr:Core="Req"
                    xmlns:mdr="https://www.cdisc.org/ns/mdr/c360" Role="Topic"/>
                <ItemRef ItemOID="C360.DM.IT.RFSTDTC" OrderNumber="4" Mandatory="No" mdr:Core="Exp"
                    xmlns:mdr="https://www.cdisc.org/ns/mdr/c360" Role="Record Qualifier"
                    MethodOID="C360.MTH.C360.DM.IT.RFSTDTC"
                    mdr:AltMethodOID="C360.MTH.ALT.C360.DM.IT.RFSTDTC"/>
                <ItemRef ItemOID="C360.DM.IT.RFENDTC" OrderNumber="5" Mandatory="No" mdr:Core="Exp"
                    xmlns:mdr="https://www.cdisc.org/ns/mdr/c360" Role="Record Qualifier"
                    MethodOID="C360.MTH.C360.DM.IT.RFENDTC"
                    mdr:AltMethodOID="C360.MTH.ALT.C360.DM.IT.RFENDTC"/>
                <ItemRef ItemOID="C360.DM.IT.RFXSTDTC" OrderNumber="6" Mandatory="No" mdr:Core="Exp"
                    xmlns:mdr="https://www.cdisc.org/ns/mdr/c360" Role="Record Qualifier"
                    MethodOID="C360.MTH.C360.DM.IT.RFXSTDTC"/>
                <ItemRef ItemOID="C360.DM.IT.RFXENDTC" OrderNumber="7" Mandatory="No" mdr:Core="Exp"
                    xmlns:mdr="https://www.cdisc.org/ns/mdr/c360" Role="Record Qualifier"
                    MethodOID="C360.MTH.C360.DM.IT.RFXENDTC"/>
                <ItemRef ItemOID="C360.DM.IT.RFICDTC" OrderNumber="8" Mandatory="No" mdr:Core="Exp"
                    xmlns:mdr="https://www.cdisc.org/ns/mdr/c360" Role="Record Qualifier"
                    MethodOID="C360.MTH.C360.DM.IT.RFICDTC"/>
                <ItemRef ItemOID="C360.DM.IT.RFPENDTC" OrderNumber="9" Mandatory="No" mdr:Core="Exp"
                    xmlns:mdr="https://www.cdisc.org/ns/mdr/c360" Role="Record Qualifier"
                    MethodOID="C360.MTH.C360.DM.IT.RFPENDTC"/>
                <ItemRef ItemOID="C360.DM.IT.DTHDTC" OrderNumber="10" Mandatory="No" mdr:Core="Exp"
                    xmlns:mdr="https://www.cdisc.org/ns/mdr/c360" Role="Record Qualifier"/>
                <ItemRef ItemOID="C360.DM.IT.DTHFL" OrderNumber="11" Mandatory="No" mdr:Core="Exp"
                    xmlns:mdr="https://www.cdisc.org/ns/mdr/c360" Role="Record Qualifier"
                    MethodOID="C360.MTH.C360.DM.IT.DTHFL"/>
                <ItemRef ItemOID="C360.DM.IT.SITEID" OrderNumber="12" Mandatory="Yes" mdr:Core="Req"
                    xmlns:mdr="https://www.cdisc.org/ns/mdr/c360" Role="Record Qualifier"/>
                <ItemRef ItemOID="C360.DM.IT.INVID" OrderNumber="13" Mandatory="No" mdr:Core="Perm"
                    xmlns:mdr="https://www.cdisc.org/ns/mdr/c360" Role="Record Qualifier"/>
                <ItemRef ItemOID="C360.DM.IT.INVNAM" OrderNumber="14" Mandatory="No" mdr:Core="Perm"
                    xmlns:mdr="https://www.cdisc.org/ns/mdr/c360" Role="Synonym Qualifier"/>
                <ItemRef ItemOID="C360.DM.IT.BRTHDTC" OrderNumber="15" Mandatory="No"
                    mdr:Core="Perm" xmlns:mdr="https://www.cdisc.org/ns/mdr/c360"
                    Role="Record Qualifier" MethodOID="C360.MTH.C360.DM.IT.BRTHDTC"/>
                <ItemRef ItemOID="C360.DM.IT.AGE" OrderNumber="16" Mandatory="No" mdr:Core="Exp"
                    xmlns:mdr="https://www.cdisc.org/ns/mdr/c360" Role="Record Qualifier"/>
                <ItemRef ItemOID="C360.DM.IT.AGEU" OrderNumber="17" Mandatory="No" mdr:Core="Exp"
                    xmlns:mdr="https://www.cdisc.org/ns/mdr/c360" Role="Variable Qualifier"/>
                <ItemRef ItemOID="C360.DM.IT.SEX" OrderNumber="18" Mandatory="Yes" mdr:Core="Req"
                    xmlns:mdr="https://www.cdisc.org/ns/mdr/c360" Role="Record Qualifier"/>
                <ItemRef ItemOID="C360.DM.IT.RACE" OrderNumber="19" Mandatory="No" mdr:Core="Exp"
                    xmlns:mdr="https://www.cdisc.org/ns/mdr/c360" Role="Record Qualifier"/>
                <ItemRef ItemOID="C360.DM.IT.ETHNIC" OrderNumber="20" Mandatory="No" mdr:Core="Perm"
                    xmlns:mdr="https://www.cdisc.org/ns/mdr/c360" Role="Record Qualifier"/>
                <ItemRef ItemOID="C360.DM.IT.ARMCD" OrderNumber="21" Mandatory="Yes" mdr:Core="Req"
                    xmlns:mdr="https://www.cdisc.org/ns/mdr/c360" Role="Record Qualifier"/>
                <ItemRef ItemOID="C360.DM.IT.ARM" OrderNumber="22" Mandatory="Yes" mdr:Core="Req"
                    xmlns:mdr="https://www.cdisc.org/ns/mdr/c360" Role="Synonym Qualifier"/>
                <ItemRef ItemOID="C360.DM.IT.ACTARMCD" OrderNumber="23" Mandatory="Yes"
                    mdr:Core="Req" xmlns:mdr="https://www.cdisc.org/ns/mdr/c360"
                    Role="Record Qualifier"/>
                <ItemRef ItemOID="C360.DM.IT.ACTARM" OrderNumber="24" Mandatory="Yes" mdr:Core="Req"
                    xmlns:mdr="https://www.cdisc.org/ns/mdr/c360" Role="Synonym Qualifier"/>
                <ItemRef ItemOID="C360.DM.IT.COUNTRY" OrderNumber="25" Mandatory="Yes"
                    mdr:Core="Req" xmlns:mdr="https://www.cdisc.org/ns/mdr/c360"
                    Role="Record Qualifier"/>
                <ItemRef ItemOID="C360.DM.IT.DMDTC" OrderNumber="26" Mandatory="No" mdr:Core="Perm"
                    xmlns:mdr="https://www.cdisc.org/ns/mdr/c360" Role="Timing"
                    MethodOID="C360.MTH.C360.DM.IT.DMDTC"/>
                <ItemRef ItemOID="C360.DM.IT.DMDY" OrderNumber="27" Mandatory="No" mdr:Core="Perm"
                    xmlns:mdr="https://www.cdisc.org/ns/mdr/c360" Role="Timing"
                    MethodOID="C360.MTH.C360.DM.IT.DMDY"/>
                <def:Class Name="SPECIAL PURPOSE"/>
            </ItemGroupDef>
            <ItemGroupDef
                OID="C360.SDTM.DS.https://cdisc-mdsp-qa.nurocorcloud.com/api/mdr/sdtmig/3-2/datasets/EC"
                Name="EC" Purpose="C360 Biomedical Concept" Repeating="Yes"
                def:Structure="One record per protocol-specified study treatment, collected-dosing interval, per subject, per mood"
                def:StandardOID="C360.SDTMIG-VERS">
                <Description>
                    <TranslatedText>Exposure as Collected</TranslatedText>
                </Description>
                <ItemRef ItemOID="C360.EC.IT.DOMAIN" OrderNumber="1" Mandatory="Yes" mdr:Core="Req"
                    xmlns:mdr="https://www.cdisc.org/ns/mdr/c360" Role="Identifier"/>
                <ItemRef ItemOID="C360.EC.IT.USUBJID" OrderNumber="2" Mandatory="Yes" mdr:Core="Req"
                    xmlns:mdr="https://www.cdisc.org/ns/mdr/c360" Role="Identifier"/>
                <ItemRef ItemOID="C360.EC.IT.ECSEQ" OrderNumber="3" Mandatory="Yes" mdr:Core="Req"
                    xmlns:mdr="https://www.cdisc.org/ns/mdr/c360" Role="Identifier"/>
                <ItemRef ItemOID="C360.EC.IT.ECGRPID" OrderNumber="4" Mandatory="No" mdr:Core="Perm"
                    xmlns:mdr="https://www.cdisc.org/ns/mdr/c360" Role="Identifier"/>
                <ItemRef ItemOID="C360.EC.IT.ECREFID" OrderNumber="5" Mandatory="No" mdr:Core="Perm"
                    xmlns:mdr="https://www.cdisc.org/ns/mdr/c360" Role="Identifier"/>
                <ItemRef ItemOID="C360.EC.IT.ECSPID" OrderNumber="6" Mandatory="No" mdr:Core="Perm"
                    xmlns:mdr="https://www.cdisc.org/ns/mdr/c360" Role="Identifier"/>
                <ItemRef ItemOID="C360.EC.IT.ECLNKID" OrderNumber="7" Mandatory="No" mdr:Core="Perm"
                    xmlns:mdr="https://www.cdisc.org/ns/mdr/c360" Role="Identifier"/>
                <ItemRef ItemOID="C360.EC.IT.ECLNKGRP" OrderNumber="8" Mandatory="No"
                    mdr:Core="Perm" xmlns:mdr="https://www.cdisc.org/ns/mdr/c360" Role="Identifier"/>
                <ItemRef ItemOID="C360.EC.IT.ECTRT" OrderNumber="9" Mandatory="Yes" mdr:Core="Req"
                    xmlns:mdr="https://www.cdisc.org/ns/mdr/c360" Role="Topic"/>
                <ItemRef ItemOID="C360.EC.IT.ECMOOD" OrderNumber="10" Mandatory="No" mdr:Core="Perm"
                    xmlns:mdr="https://www.cdisc.org/ns/mdr/c360" Role="Record Qualifier"/>
                <ItemRef ItemOID="C360.EC.IT.ECCAT" OrderNumber="11" Mandatory="No" mdr:Core="Perm"
                    xmlns:mdr="https://www.cdisc.org/ns/mdr/c360" Role="Grouping Qualifier"/>
                <ItemRef ItemOID="C360.EC.IT.ECSCAT" OrderNumber="12" Mandatory="No" mdr:Core="Perm"
                    xmlns:mdr="https://www.cdisc.org/ns/mdr/c360" Role="Grouping Qualifier"/>
                <ItemRef ItemOID="C360.EC.IT.ECPRESP" OrderNumber="13" Mandatory="No"
                    mdr:Core="Perm" xmlns:mdr="https://www.cdisc.org/ns/mdr/c360"
                    Role="Record Qualifier"/>
                <ItemRef ItemOID="C360.EC.IT.ECOCCUR" OrderNumber="14" Mandatory="No"
                    mdr:Core="Perm" xmlns:mdr="https://www.cdisc.org/ns/mdr/c360"
                    Role="Record Qualifier" MethodOID="C360.MTH.C360.EC.IT.ECOCCUR"/>
                <ItemRef ItemOID="C360.EC.IT.ECDOSE" OrderNumber="15" Mandatory="No" mdr:Core="Exp"
                    xmlns:mdr="https://www.cdisc.org/ns/mdr/c360" Role="Record Qualifier"
                    MethodOID="C360.MTH.C360.EC.IT.ECDOSE"/>
                <ItemRef ItemOID="C360.EC.IT.ECDOSTXT" OrderNumber="16" Mandatory="No"
                    mdr:Core="Perm" xmlns:mdr="https://www.cdisc.org/ns/mdr/c360"
                    Role="Record Qualifier" MethodOID="C360.MTH.C360.EC.IT.ECDOSTXT"/>
                <ItemRef ItemOID="C360.EC.IT.ECDOSU" OrderNumber="17" Mandatory="No" mdr:Core="Exp"
                    xmlns:mdr="https://www.cdisc.org/ns/mdr/c360" Role="Variable Qualifier"/>
                <ItemRef ItemOID="C360.EC.IT.ECDOSFRM" OrderNumber="18" Mandatory="No"
                    mdr:Core="Exp" xmlns:mdr="https://www.cdisc.org/ns/mdr/c360"
                    Role="Variable Qualifier"/>
                <ItemRef ItemOID="C360.EC.IT.ECDOSFRQ" OrderNumber="19" Mandatory="No"
                    mdr:Core="Perm" xmlns:mdr="https://www.cdisc.org/ns/mdr/c360"
                    Role="Variable Qualifier"/>
                <ItemRef ItemOID="C360.EC.IT.ECDOSTOT" OrderNumber="20" Mandatory="No"
                    mdr:Core="Perm" xmlns:mdr="https://www.cdisc.org/ns/mdr/c360"
                    Role="Record Qualifier"/>
                <ItemRef ItemOID="C360.EC.IT.ECDOSRGM" OrderNumber="21" Mandatory="No"
                    mdr:Core="Perm" xmlns:mdr="https://www.cdisc.org/ns/mdr/c360"
                    Role="Variable Qualifier"/>
                <ItemRef ItemOID="C360.EC.IT.ECROUTE" OrderNumber="22" Mandatory="No"
                    mdr:Core="Perm" xmlns:mdr="https://www.cdisc.org/ns/mdr/c360"
                    Role="Variable Qualifier"/>
                <ItemRef ItemOID="C360.EC.IT.ECLOT" OrderNumber="23" Mandatory="No" mdr:Core="Perm"
                    xmlns:mdr="https://www.cdisc.org/ns/mdr/c360" Role="Record Qualifier"/>
                <ItemRef ItemOID="C360.EC.IT.ECLOC" OrderNumber="24" Mandatory="No" mdr:Core="Perm"
                    xmlns:mdr="https://www.cdisc.org/ns/mdr/c360" Role="Record Qualifier"/>
                <ItemRef ItemOID="C360.EC.IT.ECLAT" OrderNumber="25" Mandatory="No" mdr:Core="Perm"
                    xmlns:mdr="https://www.cdisc.org/ns/mdr/c360" Role="Record Qualifier"/>
                <ItemRef ItemOID="C360.EC.IT.ECDIR" OrderNumber="26" Mandatory="No" mdr:Core="Perm"
                    xmlns:mdr="https://www.cdisc.org/ns/mdr/c360" Role="Variable Qualifier"/>
                <ItemRef ItemOID="C360.EC.IT.ECPORTOT" OrderNumber="27" Mandatory="No"
                    mdr:Core="Perm" xmlns:mdr="https://www.cdisc.org/ns/mdr/c360"
                    Role="Variable Qualifier"/>
                <ItemRef ItemOID="C360.EC.IT.ECFAST" OrderNumber="28" Mandatory="No" mdr:Core="Perm"
                    xmlns:mdr="https://www.cdisc.org/ns/mdr/c360" Role="Record Qualifier"
                    MethodOID="C360.MTH.C360.EC.IT.ECFAST"/>
                <ItemRef ItemOID="C360.EC.IT.ECPSTRG" OrderNumber="29" Mandatory="No"
                    mdr:Core="Perm" xmlns:mdr="https://www.cdisc.org/ns/mdr/c360"
                    Role="Variable Qualifier"/>
                <ItemRef ItemOID="C360.EC.IT.ECPSTRGU" OrderNumber="30" Mandatory="No"
                    mdr:Core="Perm" xmlns:mdr="https://www.cdisc.org/ns/mdr/c360"
                    Role="Variable Qualifier"/>
                <ItemRef ItemOID="C360.EC.IT.ECADJ" OrderNumber="31" Mandatory="No" mdr:Core="Perm"
                    xmlns:mdr="https://www.cdisc.org/ns/mdr/c360" Role="Record Qualifier"
                    MethodOID="C360.MTH.C360.EC.IT.ECADJ"/>
                <ItemRef ItemOID="C360.EC.IT.EPOCH" OrderNumber="32" Mandatory="No" mdr:Core="Perm"
                    xmlns:mdr="https://www.cdisc.org/ns/mdr/c360" Role="Timing"/>
                <ItemRef ItemOID="C360.EC.IT.ECSTDTC" OrderNumber="33" Mandatory="No" mdr:Core="Exp"
                    xmlns:mdr="https://www.cdisc.org/ns/mdr/c360" Role="Timing"
                    MethodOID="C360.MTH.C360.EC.IT.ECSTDTC"/>
                <ItemRef ItemOID="C360.EC.IT.ECENDTC" OrderNumber="34" Mandatory="No" mdr:Core="Exp"
                    xmlns:mdr="https://www.cdisc.org/ns/mdr/c360" Role="Timing"
                    MethodOID="C360.MTH.C360.EC.IT.ECENDTC"/>
                <ItemRef ItemOID="C360.EC.IT.ECSTDY" OrderNumber="35" Mandatory="No" mdr:Core="Perm"
                    xmlns:mdr="https://www.cdisc.org/ns/mdr/c360" Role="Timing"
                    MethodOID="C360.MTH.C360.EC.IT.ECSTDY"/>
                <ItemRef ItemOID="C360.EC.IT.ECENDY" OrderNumber="36" Mandatory="No" mdr:Core="Perm"
                    xmlns:mdr="https://www.cdisc.org/ns/mdr/c360" Role="Timing"
                    MethodOID="C360.MTH.C360.EC.IT.ECENDY"/>
                <ItemRef ItemOID="C360.EC.IT.ECDUR" OrderNumber="37" Mandatory="No" mdr:Core="Perm"
                    xmlns:mdr="https://www.cdisc.org/ns/mdr/c360" Role="Timing"/>
                <ItemRef ItemOID="C360.EC.IT.ECTPT" OrderNumber="38" Mandatory="No" mdr:Core="Perm"
                    xmlns:mdr="https://www.cdisc.org/ns/mdr/c360" Role="Timing"/>
                <ItemRef ItemOID="C360.EC.IT.ECTPTNUM" OrderNumber="39" Mandatory="No"
                    mdr:Core="Perm" xmlns:mdr="https://www.cdisc.org/ns/mdr/c360" Role="Timing"/>
                <ItemRef ItemOID="C360.EC.IT.ECELTM" OrderNumber="40" Mandatory="No" mdr:Core="Perm"
                    xmlns:mdr="https://www.cdisc.org/ns/mdr/c360" Role="Timing"/>
                <ItemRef ItemOID="C360.EC.IT.ECTPTREF" OrderNumber="41" Mandatory="No"
                    mdr:Core="Perm" xmlns:mdr="https://www.cdisc.org/ns/mdr/c360" Role="Timing"/>
                <ItemRef ItemOID="C360.EC.IT.ECRFTDTC" OrderNumber="42" Mandatory="No"
                    mdr:Core="Perm" xmlns:mdr="https://www.cdisc.org/ns/mdr/c360" Role="Timing"/>
                <def:Class Name="INTERVENTIONS"/>
            </ItemGroupDef>
            <ItemGroupDef
                OID="C360.SDTM.DS.https://cdisc-mdsp-qa.nurocorcloud.com/api/mdr/sdtmig/3-2/datasets/DS"
                Name="DS" Purpose="C360 Biomedical Concept" Repeating="Yes"
                def:Structure="One record per disposition status or protocol milestone per subject"
                def:StandardOID="C360.SDTMIG-VERS">
                <Description>
                    <TranslatedText>Disposition</TranslatedText>
                </Description>
                <ItemRef ItemOID="C360.DS.IT.DOMAIN" OrderNumber="1" Mandatory="Yes" mdr:Core="Req"
                    xmlns:mdr="https://www.cdisc.org/ns/mdr/c360" Role="Identifier"/>
                <ItemRef ItemOID="C360.DS.IT.USUBJID" OrderNumber="2" Mandatory="Yes" mdr:Core="Req"
                    xmlns:mdr="https://www.cdisc.org/ns/mdr/c360" Role="Identifier"/>
                <ItemRef ItemOID="C360.DS.IT.DSSEQ" OrderNumber="3" Mandatory="Yes" mdr:Core="Req"
                    xmlns:mdr="https://www.cdisc.org/ns/mdr/c360" Role="Identifier"/>
                <ItemRef ItemOID="C360.DS.IT.DSGRPID" OrderNumber="4" Mandatory="No" mdr:Core="Perm"
                    xmlns:mdr="https://www.cdisc.org/ns/mdr/c360" Role="Identifier"/>
                <ItemRef ItemOID="C360.DS.IT.DSREFID" OrderNumber="5" Mandatory="No" mdr:Core="Perm"
                    xmlns:mdr="https://www.cdisc.org/ns/mdr/c360" Role="Identifier"/>
                <ItemRef ItemOID="C360.DS.IT.DSSPID" OrderNumber="6" Mandatory="No" mdr:Core="Perm"
                    xmlns:mdr="https://www.cdisc.org/ns/mdr/c360" Role="Identifier"/>
                <ItemRef ItemOID="C360.DS.IT.DSTERM" OrderNumber="7" Mandatory="Yes" mdr:Core="Req"
                    xmlns:mdr="https://www.cdisc.org/ns/mdr/c360" Role="Topic"/>
                <ItemRef ItemOID="C360.DS.IT.DSDECOD" OrderNumber="8" Mandatory="Yes" mdr:Core="Req"
                    xmlns:mdr="https://www.cdisc.org/ns/mdr/c360" Role="Synonym Qualifier"/>
                <ItemRef ItemOID="C360.DS.IT.DSCAT" OrderNumber="9" Mandatory="No" mdr:Core="Exp"
                    xmlns:mdr="https://www.cdisc.org/ns/mdr/c360" Role="Grouping Qualifier"/>
                <ItemRef ItemOID="C360.DS.IT.DSSCAT" OrderNumber="10" Mandatory="No" mdr:Core="Perm"
                    xmlns:mdr="https://www.cdisc.org/ns/mdr/c360" Role="Grouping Qualifier"/>
                <ItemRef ItemOID="C360.DS.IT.EPOCH" OrderNumber="11" Mandatory="No" mdr:Core="Perm"
                    xmlns:mdr="https://www.cdisc.org/ns/mdr/c360" Role="Timing"/>
                <ItemRef ItemOID="C360.DS.IT.DSDTC" OrderNumber="12" Mandatory="No" mdr:Core="Perm"
                    xmlns:mdr="https://www.cdisc.org/ns/mdr/c360" Role="Timing"/>
                <ItemRef ItemOID="C360.DS.IT.DSSTDTC" OrderNumber="13" Mandatory="No" mdr:Core="Exp"
                    xmlns:mdr="https://www.cdisc.org/ns/mdr/c360" Role="Timing"/>
                <ItemRef ItemOID="C360.DS.IT.DSSTDY" OrderNumber="14" Mandatory="No" mdr:Core="Perm"
                    xmlns:mdr="https://www.cdisc.org/ns/mdr/c360" Role="Timing"/>
                <def:Class Name="EVENTS"/>
            </ItemGroupDef>
            <ItemGroupDef
                OID="C360.SDTM.DS.https://cdisc-mdsp-qa.nurocorcloud.com/api/mdr/sdtmig/3-2/datasets/AE"
                Name="AE" Purpose="C360 Biomedical Concept" Repeating="Yes"
                def:Structure="One record per adverse event per subject"
                def:StandardOID="C360.SDTMIG-VERS">
                <Description>
                    <TranslatedText>Adverse Events</TranslatedText>
                </Description>
                <ItemRef ItemOID="C360.AE.IT.DOMAIN" OrderNumber="1" Mandatory="Yes" mdr:Core="Req"
                    xmlns:mdr="https://www.cdisc.org/ns/mdr/c360" Role="Identifier"/>
                <ItemRef ItemOID="C360.AE.IT.USUBJID" OrderNumber="2" Mandatory="Yes" mdr:Core="Req"
                    xmlns:mdr="https://www.cdisc.org/ns/mdr/c360" Role="Identifier"/>
                <ItemRef ItemOID="C360.AE.IT.AESEQ" OrderNumber="3" Mandatory="Yes" mdr:Core="Req"
                    xmlns:mdr="https://www.cdisc.org/ns/mdr/c360" Role="Identifier"/>
                <ItemRef ItemOID="C360.AE.IT.AEGRPID" OrderNumber="4" Mandatory="No" mdr:Core="Perm"
                    xmlns:mdr="https://www.cdisc.org/ns/mdr/c360" Role="Identifier"/>
                <ItemRef ItemOID="C360.AE.IT.AEREFID" OrderNumber="5" Mandatory="No" mdr:Core="Perm"
                    xmlns:mdr="https://www.cdisc.org/ns/mdr/c360" Role="Identifier"/>
                <ItemRef ItemOID="C360.AE.IT.AESPID" OrderNumber="6" Mandatory="No" mdr:Core="Perm"
                    xmlns:mdr="https://www.cdisc.org/ns/mdr/c360" Role="Identifier"/>
                <ItemRef ItemOID="C360.AE.IT.AETERM" OrderNumber="7" Mandatory="Yes" mdr:Core="Req"
                    xmlns:mdr="https://www.cdisc.org/ns/mdr/c360" Role="Topic"/>
                <ItemRef ItemOID="C360.AE.IT.AEMODIFY" OrderNumber="8" Mandatory="No"
                    mdr:Core="Perm" xmlns:mdr="https://www.cdisc.org/ns/mdr/c360"
                    Role="Synonym Qualifier"/>
                <ItemRef ItemOID="C360.AE.IT.AELLT" OrderNumber="9" Mandatory="No" mdr:Core="Exp"
                    xmlns:mdr="https://www.cdisc.org/ns/mdr/c360" Role="Variable Qualifier"/>
                <ItemRef ItemOID="C360.AE.IT.AELLTCD" OrderNumber="10" Mandatory="No" mdr:Core="Exp"
                    xmlns:mdr="https://www.cdisc.org/ns/mdr/c360" Role="Variable Qualifier"/>
                <ItemRef ItemOID="C360.AE.IT.AEDECOD" OrderNumber="11" Mandatory="Yes"
                    mdr:Core="Req" xmlns:mdr="https://www.cdisc.org/ns/mdr/c360"
                    Role="Synonym Qualifier"/>
                <ItemRef ItemOID="C360.AE.IT.AEPTCD" OrderNumber="12" Mandatory="No" mdr:Core="Exp"
                    xmlns:mdr="https://www.cdisc.org/ns/mdr/c360" Role="Variable Qualifier"/>
                <ItemRef ItemOID="C360.AE.IT.AEHLT" OrderNumber="13" Mandatory="No" mdr:Core="Exp"
                    xmlns:mdr="https://www.cdisc.org/ns/mdr/c360" Role="Variable Qualifier"/>
                <ItemRef ItemOID="C360.AE.IT.AEHLTCD" OrderNumber="14" Mandatory="No" mdr:Core="Exp"
                    xmlns:mdr="https://www.cdisc.org/ns/mdr/c360" Role="Variable Qualifier"/>
                <ItemRef ItemOID="C360.AE.IT.AEHLGT" OrderNumber="15" Mandatory="No" mdr:Core="Exp"
                    xmlns:mdr="https://www.cdisc.org/ns/mdr/c360" Role="Variable Qualifier"/>
                <ItemRef ItemOID="C360.AE.IT.AEHLGTCD" OrderNumber="16" Mandatory="No"
                    mdr:Core="Exp" xmlns:mdr="https://www.cdisc.org/ns/mdr/c360"
                    Role="Variable Qualifier"/>
                <ItemRef ItemOID="C360.AE.IT.AECAT" OrderNumber="17" Mandatory="No" mdr:Core="Perm"
                    xmlns:mdr="https://www.cdisc.org/ns/mdr/c360" Role="Grouping Qualifier"/>
                <ItemRef ItemOID="C360.AE.IT.AESCAT" OrderNumber="18" Mandatory="No" mdr:Core="Perm"
                    xmlns:mdr="https://www.cdisc.org/ns/mdr/c360" Role="Grouping Qualifier"/>
                <ItemRef ItemOID="C360.AE.IT.AEPRESP" OrderNumber="19" Mandatory="No"
                    mdr:Core="Perm" xmlns:mdr="https://www.cdisc.org/ns/mdr/c360"
                    Role="Variable Qualifier"/>
                <ItemRef ItemOID="C360.AE.IT.AEBODSYS" OrderNumber="20" Mandatory="No"
                    mdr:Core="Exp" xmlns:mdr="https://www.cdisc.org/ns/mdr/c360"
                    Role="Record Qualifier"/>
                <ItemRef ItemOID="C360.AE.IT.AEBDSYCD" OrderNumber="21" Mandatory="No"
                    mdr:Core="Exp" xmlns:mdr="https://www.cdisc.org/ns/mdr/c360"
                    Role="Variable Qualifier"/>
                <ItemRef ItemOID="C360.AE.IT.AESOC" OrderNumber="22" Mandatory="No" mdr:Core="Exp"
                    xmlns:mdr="https://www.cdisc.org/ns/mdr/c360" Role="Variable Qualifier"/>
                <ItemRef ItemOID="C360.AE.IT.AESOCCD" OrderNumber="23" Mandatory="No" mdr:Core="Exp"
                    xmlns:mdr="https://www.cdisc.org/ns/mdr/c360" Role="Variable Qualifier"/>
                <ItemRef ItemOID="C360.AE.IT.AELOC" OrderNumber="24" Mandatory="No" mdr:Core="Perm"
                    xmlns:mdr="https://www.cdisc.org/ns/mdr/c360" Role="Record Qualifier"/>
                <ItemRef ItemOID="C360.AE.IT.AESEV" OrderNumber="25" Mandatory="No" mdr:Core="Perm"
                    xmlns:mdr="https://www.cdisc.org/ns/mdr/c360" Role="Record Qualifier"/>
                <ItemRef ItemOID="C360.AE.IT.AESER" OrderNumber="26" Mandatory="No" mdr:Core="Exp"
                    xmlns:mdr="https://www.cdisc.org/ns/mdr/c360" Role="Record Qualifier"/>
                <ItemRef ItemOID="C360.AE.IT.AEACN" OrderNumber="27" Mandatory="No" mdr:Core="Exp"
                    xmlns:mdr="https://www.cdisc.org/ns/mdr/c360" Role="Record Qualifier"/>
                <ItemRef ItemOID="C360.AE.IT.AEACNOTH" OrderNumber="28" Mandatory="No"
                    mdr:Core="Perm" xmlns:mdr="https://www.cdisc.org/ns/mdr/c360"
                    Role="Record Qualifier"/>
                <ItemRef ItemOID="C360.AE.IT.AEREL" OrderNumber="29" Mandatory="No" mdr:Core="Exp"
                    xmlns:mdr="https://www.cdisc.org/ns/mdr/c360" Role="Record Qualifier"/>
                <ItemRef ItemOID="C360.AE.IT.AERELNST" OrderNumber="30" Mandatory="No"
                    mdr:Core="Perm" xmlns:mdr="https://www.cdisc.org/ns/mdr/c360"
                    Role="Record Qualifier"/>
                <ItemRef ItemOID="C360.AE.IT.AEPATT" OrderNumber="31" Mandatory="No" mdr:Core="Perm"
                    xmlns:mdr="https://www.cdisc.org/ns/mdr/c360" Role="Record Qualifier"/>
                <ItemRef ItemOID="C360.AE.IT.AEOUT" OrderNumber="32" Mandatory="No" mdr:Core="Perm"
                    xmlns:mdr="https://www.cdisc.org/ns/mdr/c360" Role="Record Qualifier"/>
                <ItemRef ItemOID="C360.AE.IT.AESCAN" OrderNumber="33" Mandatory="No" mdr:Core="Perm"
                    xmlns:mdr="https://www.cdisc.org/ns/mdr/c360" Role="Record Qualifier"/>
                <ItemRef ItemOID="C360.AE.IT.AESCONG" OrderNumber="34" Mandatory="No"
                    mdr:Core="Perm" xmlns:mdr="https://www.cdisc.org/ns/mdr/c360"
                    Role="Record Qualifier"/>
                <ItemRef ItemOID="C360.AE.IT.AESDISAB" OrderNumber="35" Mandatory="No"
                    mdr:Core="Perm" xmlns:mdr="https://www.cdisc.org/ns/mdr/c360"
                    Role="Record Qualifier"/>
                <ItemRef ItemOID="C360.AE.IT.AESDTH" OrderNumber="36" Mandatory="No" mdr:Core="Perm"
                    xmlns:mdr="https://www.cdisc.org/ns/mdr/c360" Role="Record Qualifier"/>
                <ItemRef ItemOID="C360.AE.IT.AESHOSP" OrderNumber="37" Mandatory="No"
                    mdr:Core="Perm" xmlns:mdr="https://www.cdisc.org/ns/mdr/c360"
                    Role="Record Qualifier"/>
                <ItemRef ItemOID="C360.AE.IT.AESLIFE" OrderNumber="38" Mandatory="No"
                    mdr:Core="Perm" xmlns:mdr="https://www.cdisc.org/ns/mdr/c360"
                    Role="Record Qualifier"/>
                <ItemRef ItemOID="C360.AE.IT.AESOD" OrderNumber="39" Mandatory="No" mdr:Core="Perm"
                    xmlns:mdr="https://www.cdisc.org/ns/mdr/c360" Role="Record Qualifier"/>
                <ItemRef ItemOID="C360.AE.IT.AESMIE" OrderNumber="40" Mandatory="No" mdr:Core="Perm"
                    xmlns:mdr="https://www.cdisc.org/ns/mdr/c360" Role="Record Qualifier"/>
                <ItemRef ItemOID="C360.AE.IT.AECONTRT" OrderNumber="41" Mandatory="No"
                    mdr:Core="Perm" xmlns:mdr="https://www.cdisc.org/ns/mdr/c360"
                    Role="Record Qualifier"/>
                <ItemRef ItemOID="C360.AE.IT.AETOXGR" OrderNumber="42" Mandatory="No"
                    mdr:Core="Perm" xmlns:mdr="https://www.cdisc.org/ns/mdr/c360"
                    Role="Record Qualifier"/>
                <ItemRef ItemOID="C360.AE.IT.AESTDTC" OrderNumber="43" Mandatory="No" mdr:Core="Exp"
                    xmlns:mdr="https://www.cdisc.org/ns/mdr/c360" Role="Timing"/>
                <ItemRef ItemOID="C360.AE.IT.AEENDTC" OrderNumber="44" Mandatory="No" mdr:Core="Exp"
                    xmlns:mdr="https://www.cdisc.org/ns/mdr/c360" Role="Timing"/>
                <ItemRef ItemOID="C360.AE.IT.AESTDY" OrderNumber="45" Mandatory="No" mdr:Core="Perm"
                    xmlns:mdr="https://www.cdisc.org/ns/mdr/c360" Role="Timing"/>
                <ItemRef ItemOID="C360.AE.IT.AEENDY" OrderNumber="46" Mandatory="No" mdr:Core="Perm"
                    xmlns:mdr="https://www.cdisc.org/ns/mdr/c360" Role="Timing"/>
                <ItemRef ItemOID="C360.AE.IT.AEDUR" OrderNumber="47" Mandatory="No" mdr:Core="Perm"
                    xmlns:mdr="https://www.cdisc.org/ns/mdr/c360" Role="Timing"/>
                <ItemRef ItemOID="C360.AE.IT.AEENRF" OrderNumber="48" Mandatory="No" mdr:Core="Perm"
                    xmlns:mdr="https://www.cdisc.org/ns/mdr/c360" Role="Timing"/>
                <ItemRef ItemOID="C360.AE.IT.AEENRTPT" OrderNumber="49" Mandatory="No"
                    mdr:Core="Perm" xmlns:mdr="https://www.cdisc.org/ns/mdr/c360" Role="Timing"/>
                <ItemRef ItemOID="C360.AE.IT.AEENTPT" OrderNumber="50" Mandatory="No"
                    mdr:Core="Perm" xmlns:mdr="https://www.cdisc.org/ns/mdr/c360" Role="Timing"/>
                <def:Class Name="EVENTS"/>
            </ItemGroupDef>
            <ItemGroupDef OID="C360.SDTM.sdtmig_3-2.VS" Name="VS" Purpose="C360 Biomedical Concept"
                Repeating="Yes"
                def:Structure="One record per vital sign measurement per time point per visit per subject"
                def:StandardOID="C360.SDTMIG-VERS">
                <Description>
                    <TranslatedText>Vital Signs</TranslatedText>
                </Description>
                <ItemRef ItemOID="C360.VS.IT.STUDYID" OrderNumber="1" Mandatory="Yes" mdr:Core="Req"
                    xmlns:mdr="https://www.cdisc.org/ns/mdr/c360" Role="Identifier"/>
                <ItemRef ItemOID="C360.VS.IT.DOMAIN" OrderNumber="2" Mandatory="Yes" mdr:Core="Req"
                    xmlns:mdr="https://www.cdisc.org/ns/mdr/c360" Role="Identifier"/>
                <ItemRef ItemOID="C360.VS.IT.USUBJID" OrderNumber="3" Mandatory="Yes" mdr:Core="Req"
                    xmlns:mdr="https://www.cdisc.org/ns/mdr/c360" Role="Identifier"/>
                <ItemRef ItemOID="C360.VS.IT.VSSEQ" OrderNumber="4" Mandatory="Yes" mdr:Core="Req"
                    xmlns:mdr="https://www.cdisc.org/ns/mdr/c360" Role="Identifier"/>
                <ItemRef ItemOID="C360.VS.IT.VSGRPID" OrderNumber="5" Mandatory="No" mdr:Core="Perm"
                    xmlns:mdr="https://www.cdisc.org/ns/mdr/c360" Role="Identifier"/>
                <ItemRef ItemOID="C360.VS.IT.VSSPID" OrderNumber="6" Mandatory="No" mdr:Core="Perm"
                    xmlns:mdr="https://www.cdisc.org/ns/mdr/c360" Role="Identifier"/>
                <ItemRef ItemOID="C360.VS.IT.VSTESTCD" OrderNumber="7" Mandatory="Yes"
                    mdr:Core="Req" xmlns:mdr="https://www.cdisc.org/ns/mdr/c360" Role="Topic"/>
                <ItemRef ItemOID="C360.VS.IT.VSTEST" OrderNumber="8" Mandatory="Yes" mdr:Core="Req"
                    xmlns:mdr="https://www.cdisc.org/ns/mdr/c360" Role="Synonym Qualifier"/>
                <ItemRef ItemOID="C360.VS.IT.VSCAT" OrderNumber="9" Mandatory="No" mdr:Core="Perm"
                    xmlns:mdr="https://www.cdisc.org/ns/mdr/c360" Role="Grouping Qualifier"/>
                <ItemRef ItemOID="C360.VS.IT.VSSCAT" OrderNumber="10" Mandatory="No" mdr:Core="Perm"
                    xmlns:mdr="https://www.cdisc.org/ns/mdr/c360" Role="Grouping Qualifier"/>
                <ItemRef ItemOID="C360.VS.IT.VSPOS" OrderNumber="11" Mandatory="No" mdr:Core="Perm"
                    xmlns:mdr="https://www.cdisc.org/ns/mdr/c360" Role="Record Qualifier"/>
                <ItemRef ItemOID="C360.VS.IT.VSORRES" OrderNumber="12" Mandatory="No" mdr:Core="Exp"
                    xmlns:mdr="https://www.cdisc.org/ns/mdr/c360" Role="Result Qualifier"/>
                <ItemRef ItemOID="C360.VS.IT.VSORRESU" OrderNumber="13" Mandatory="No"
                    mdr:Core="Exp" xmlns:mdr="https://www.cdisc.org/ns/mdr/c360"
                    Role="Variable Qualifier"/>
                <ItemRef ItemOID="C360.VS.IT.VSSTRESC" OrderNumber="14" Mandatory="No"
                    mdr:Core="Exp" xmlns:mdr="https://www.cdisc.org/ns/mdr/c360"
                    Role="Result Qualifier"/>
                <ItemRef ItemOID="C360.VS.IT.VSSTRESN" OrderNumber="15" Mandatory="No"
                    mdr:Core="Exp" xmlns:mdr="https://www.cdisc.org/ns/mdr/c360"
                    Role="Result Qualifier"/>
                <ItemRef ItemOID="C360.VS.IT.VSSTRESU" OrderNumber="16" Mandatory="No"
                    mdr:Core="Exp" xmlns:mdr="https://www.cdisc.org/ns/mdr/c360"
                    Role="Variable Qualifier"/>
                <ItemRef ItemOID="C360.VS.IT.VSSTAT" OrderNumber="17" Mandatory="No" mdr:Core="Perm"
                    xmlns:mdr="https://www.cdisc.org/ns/mdr/c360" Role="Record Qualifier"/>
                <ItemRef ItemOID="C360.VS.IT.VSREASND" OrderNumber="18" Mandatory="No"
                    mdr:Core="Perm" xmlns:mdr="https://www.cdisc.org/ns/mdr/c360"
                    Role="Record Qualifier"/>
                <ItemRef ItemOID="C360.VS.IT.VSLOC" OrderNumber="19" Mandatory="No" mdr:Core="Perm"
                    xmlns:mdr="https://www.cdisc.org/ns/mdr/c360" Role="Record Qualifier"/>
                <ItemRef ItemOID="C360.VS.IT.VSLAT" OrderNumber="20" Mandatory="No" mdr:Core="Perm"
                    xmlns:mdr="https://www.cdisc.org/ns/mdr/c360" Role="Result Qualifier"/>
                <ItemRef ItemOID="C360.VS.IT.VSBLFL" OrderNumber="21" Mandatory="No" mdr:Core="Exp"
                    xmlns:mdr="https://www.cdisc.org/ns/mdr/c360" Role="Record Qualifier"/>
                <ItemRef ItemOID="C360.VS.IT.VSDRVFL" OrderNumber="22" Mandatory="No"
                    mdr:Core="Perm" xmlns:mdr="https://www.cdisc.org/ns/mdr/c360"
                    Role="Record Qualifier"/>
                <ItemRef ItemOID="C360.VS.IT.VISITNUM" OrderNumber="23" Mandatory="No"
                    mdr:Core="Exp" xmlns:mdr="https://www.cdisc.org/ns/mdr/c360" Role="Timing"/>
                <ItemRef ItemOID="C360.VS.IT.VISIT" OrderNumber="24" Mandatory="No" mdr:Core="Perm"
                    xmlns:mdr="https://www.cdisc.org/ns/mdr/c360" Role="Timing"/>
                <ItemRef ItemOID="C360.VS.IT.VISITDY" OrderNumber="25" Mandatory="No"
                    mdr:Core="Perm" xmlns:mdr="https://www.cdisc.org/ns/mdr/c360" Role="Timing"/>
                <ItemRef ItemOID="C360.VS.IT.VSDTC" OrderNumber="26" Mandatory="No" mdr:Core="Exp"
                    xmlns:mdr="https://www.cdisc.org/ns/mdr/c360" Role="Timing"/>
                <ItemRef ItemOID="C360.VS.IT.VSDY" OrderNumber="27" Mandatory="No" mdr:Core="Perm"
                    xmlns:mdr="https://www.cdisc.org/ns/mdr/c360" Role="Timing"/>
                <ItemRef ItemOID="C360.VS.IT.VSTPT" OrderNumber="28" Mandatory="No" mdr:Core="Perm"
                    xmlns:mdr="https://www.cdisc.org/ns/mdr/c360" Role="Timing"/>
                <ItemRef ItemOID="C360.VS.IT.VSTPTNUM" OrderNumber="29" Mandatory="No"
                    mdr:Core="Perm" xmlns:mdr="https://www.cdisc.org/ns/mdr/c360" Role="Timing"/>
                <ItemRef ItemOID="C360.VS.IT.VSELTM" OrderNumber="30" Mandatory="No" mdr:Core="Perm"
                    xmlns:mdr="https://www.cdisc.org/ns/mdr/c360" Role="Timing"/>
                <ItemRef ItemOID="C360.VS.IT.VSTPTREF" OrderNumber="31" Mandatory="No"
                    mdr:Core="Perm" xmlns:mdr="https://www.cdisc.org/ns/mdr/c360" Role="Timing"/>
                <ItemRef ItemOID="C360.VS.IT.VSRFTDTC" OrderNumber="32" Mandatory="No"
                    mdr:Core="Perm" xmlns:mdr="https://www.cdisc.org/ns/mdr/c360" Role="Timing"/>
                <def:Class Name="FINDINGS"/>
            </ItemGroupDef>
            <ItemDef OID="C360.DM.IT.DOMAIN" Name="DOMAIN" DataType="text" Length="50"
                xmlns:def="http://www.cdisc.org/ns/def/v2.1">
                <Description>
                    <TranslatedText>Domain Abbreviation</TranslatedText>
                </Description>
                <CodeListRef CodeListOID="CL.DM.DOMAIN"/>
            </ItemDef>
            <ItemDef OID="C360.DM.IT.USUBJID" Name="USUBJID" DataType="text" Length="50"
                xmlns:def="http://www.cdisc.org/ns/def/v2.1">
                <Description>
                    <TranslatedText>Unique Subject Identifier</TranslatedText>
                </Description>
                <def:Origin Type="Derived"/>
            </ItemDef>
            <ItemDef OID="C360.DM.IT.SUBJID" Name="SUBJID" DataType="text" Length="50"
                xmlns:def="http://www.cdisc.org/ns/def/v2.1">
                <Description>
                    <TranslatedText>Subject Identifier for the Study</TranslatedText>
                </Description>
                <def:Origin Type="Predecessor">
                    <Description>
                        <TranslatedText>CDASH-DM.SUBJID</TranslatedText>
                    </Description>
                </def:Origin>
            </ItemDef>
            <ItemDef OID="C360.DM.IT.RFSTDTC" Name="RFSTDTC" DataType="datetime" Length="50"
                xmlns:def="http://www.cdisc.org/ns/def/v2.1">
                <Description>
                    <TranslatedText>Subject Reference Start Date/Time</TranslatedText>
                </Description>
                <CodeListRef CodeListOID="C360.CL.ISO 8601"/>
                <def:Origin Type="Derived"/>
            </ItemDef>
            <ItemDef OID="C360.DM.IT.RFENDTC" Name="RFENDTC" DataType="datetime" Length="50"
                xmlns:def="http://www.cdisc.org/ns/def/v2.1">
                <Description>
                    <TranslatedText>Subject Reference End Date/Time</TranslatedText>
                </Description>
                <def:Origin Type="Derived"/>
            </ItemDef>
            <ItemDef OID="C360.DM.IT.RFXSTDTC" Name="RFXSTDTC" DataType="datetime" Length="50"
                xmlns:def="http://www.cdisc.org/ns/def/v2.1">
                <Description>
                    <TranslatedText>Date/Time of First Study Treatment</TranslatedText>
                </Description>
                <def:Origin Type="Derived"/>
            </ItemDef>
            <ItemDef OID="C360.DM.IT.RFXENDTC" Name="RFXENDTC" DataType="datetime" Length="50"
                xmlns:def="http://www.cdisc.org/ns/def/v2.1">
                <Description>
                    <TranslatedText>Date/Time of Last Study Treatment</TranslatedText>
                </Description>
                <def:Origin Type="Derived"/>
            </ItemDef>
            <ItemDef OID="C360.DM.IT.RFICDTC" Name="RFICDTC" DataType="datetime" Length="50"
                xmlns:def="http://www.cdisc.org/ns/def/v2.1">
                <Description>
                    <TranslatedText>Date/Time of Informed Consent</TranslatedText>
                </Description>
                <def:Origin Type="Derived"/>
            </ItemDef>
            <ItemDef OID="C360.DM.IT.RFPENDTC" Name="RFPENDTC" DataType="datetime" Length="50"
                xmlns:def="http://www.cdisc.org/ns/def/v2.1">
                <Description>
                    <TranslatedText>Date/Time of End of Participation</TranslatedText>
                </Description>
                <def:Origin Type="Derived"/>
            </ItemDef>
            <ItemDef OID="C360.DM.IT.DTHDTC" Name="DTHDTC" DataType="datetime" Length="50"
                xmlns:def="http://www.cdisc.org/ns/def/v2.1">
                <Description>
                    <TranslatedText>Date/Time of Death</TranslatedText>
                </Description>
            </ItemDef>
            <ItemDef OID="C360.DM.IT.DTHFL" Name="DTHFL" DataType="text" Length="50"
                xmlns:def="http://www.cdisc.org/ns/def/v2.1">
                <Description>
                    <TranslatedText>Subject Death Flag</TranslatedText>
                </Description>
                <CodeListRef CodeListOID="CL./mdr/root/ct/sdtmct/codelists/C66742"/>
                <def:Origin Type="Derived"/>
            </ItemDef>
            <ItemDef OID="C360.DM.IT.SITEID" Name="SITEID" DataType="text" Length="50"
                xmlns:def="http://www.cdisc.org/ns/def/v2.1">
                <Description>
                    <TranslatedText>Study Site Identifier</TranslatedText>
                </Description>
                <def:Origin Type="Predecessor">
                    <Description>
                        <TranslatedText>CDASH-DM.SITEID</TranslatedText>
                    </Description>
                </def:Origin>
            </ItemDef>
            <ItemDef OID="C360.DM.IT.INVID" Name="INVID" DataType="text" Length="50"
                xmlns:def="http://www.cdisc.org/ns/def/v2.1">
                <Description>
                    <TranslatedText>Investigator Identifier</TranslatedText>
                </Description>
                <def:Origin Type="Predecessor">
                    <Description>
                        <TranslatedText>SDTM-DM.INVID</TranslatedText>
                    </Description>
                </def:Origin>
            </ItemDef>
            <ItemDef OID="C360.DM.IT.INVNAM" Name="INVNAM" DataType="text" Length="50"
                xmlns:def="http://www.cdisc.org/ns/def/v2.1">
                <Description>
                    <TranslatedText>Investigator Name</TranslatedText>
                </Description>
                <def:Origin Type="Predecessor">
                    <Description>
                        <TranslatedText>SDTM-DM.INVNAM</TranslatedText>
                    </Description>
                </def:Origin>
            </ItemDef>
            <ItemDef OID="C360.DM.IT.BRTHDTC" Name="BRTHDTC" DataType="datetime" Length="50"
                xmlns:def="http://www.cdisc.org/ns/def/v2.1">
                <Description>
                    <TranslatedText>Date/Time of Birth</TranslatedText>
                </Description>
                <def:Origin Type="Derived"/>
            </ItemDef>
            <ItemDef OID="C360.DM.IT.AGE" Name="AGE" DataType="integer" Length="50"
                xmlns:def="http://www.cdisc.org/ns/def/v2.1">
                <Description>
                    <TranslatedText>Age</TranslatedText>
                </Description>
                <def:Origin Type="Predecessor">
                    <Description>
                        <TranslatedText>CDASH-DM.AGE</TranslatedText>
                    </Description>
                </def:Origin>
            </ItemDef>
            <ItemDef OID="C360.DM.IT.AGEU" Name="AGEU" DataType="text" Length="50"
                xmlns:def="http://www.cdisc.org/ns/def/v2.1">
                <Description>
                    <TranslatedText>Age Units</TranslatedText>
                </Description>
                <CodeListRef CodeListOID="CL./mdr/root/ct/sdtmct/codelists/C66781"/>
                <def:Origin Type="Predecessor">
                    <Description>
                        <TranslatedText>CDASH-DM.AGEU</TranslatedText>
                    </Description>
                </def:Origin>
            </ItemDef>
            <ItemDef OID="C360.DM.IT.SEX" Name="SEX" DataType="text" Length="50"
                xmlns:def="http://www.cdisc.org/ns/def/v2.1">
                <Description>
                    <TranslatedText>Sex</TranslatedText>
                </Description>
                <CodeListRef CodeListOID="CL./mdr/root/ct/sdtmct/codelists/C66731"/>
                <def:Origin Type="Predecessor">
                    <Description>
                        <TranslatedText>CDASH-DM.SEX</TranslatedText>
                    </Description>
                </def:Origin>
            </ItemDef>
            <ItemDef OID="C360.DM.IT.RACE" Name="RACE" DataType="text" Length="50"
                xmlns:def="http://www.cdisc.org/ns/def/v2.1">
                <Description>
                    <TranslatedText>Race</TranslatedText>
                </Description>
                <CodeListRef CodeListOID="CL./mdr/root/ct/sdtmct/codelists/C74457"/>
                <def:Origin Type="Predecessor">
                    <Description>
                        <TranslatedText>CDASH-DM.RACE</TranslatedText>
                    </Description>
                </def:Origin>
            </ItemDef>
            <ItemDef OID="C360.DM.IT.ETHNIC" Name="ETHNIC" DataType="text" Length="50"
                xmlns:def="http://www.cdisc.org/ns/def/v2.1">
                <Description>
                    <TranslatedText>Ethnicity</TranslatedText>
                </Description>
                <CodeListRef CodeListOID="CL./mdr/root/ct/sdtmct/codelists/C66790"/>
                <def:Origin Type="Predecessor">
                    <Description>
                        <TranslatedText>CDASH-DM.ETHNIC</TranslatedText>
                    </Description>
                </def:Origin>
            </ItemDef>
            <ItemDef OID="C360.DM.IT.ARMCD" Name="ARMCD" DataType="text" Length="50"
                xmlns:def="http://www.cdisc.org/ns/def/v2.1">
                <Description>
                    <TranslatedText>Planned Arm Code</TranslatedText>
                </Description>
            </ItemDef>
            <ItemDef OID="C360.DM.IT.ARM" Name="ARM" DataType="text" Length="50"
                xmlns:def="http://www.cdisc.org/ns/def/v2.1">
                <Description>
                    <TranslatedText>Description of Planned Arm</TranslatedText>
                </Description>
            </ItemDef>
            <ItemDef OID="C360.DM.IT.ACTARMCD" Name="ACTARMCD" DataType="text" Length="50"
                xmlns:def="http://www.cdisc.org/ns/def/v2.1">
                <Description>
                    <TranslatedText>Actual Arm Code</TranslatedText>
                </Description>
            </ItemDef>
            <ItemDef OID="C360.DM.IT.ACTARM" Name="ACTARM" DataType="text" Length="50"
                xmlns:def="http://www.cdisc.org/ns/def/v2.1">
                <Description>
                    <TranslatedText>Description of Actual Arm</TranslatedText>
                </Description>
            </ItemDef>
            <ItemDef OID="C360.DM.IT.COUNTRY" Name="COUNTRY" DataType="text" Length="50"
                xmlns:def="http://www.cdisc.org/ns/def/v2.1">
                <Description>
                    <TranslatedText>Country</TranslatedText>
                </Description>
                <CodeListRef CodeListOID="C360.CL.ISO 3166-1 Alpha-3"/>
            </ItemDef>
            <ItemDef OID="C360.DM.IT.DMDTC" Name="DMDTC" DataType="datetime" Length="50"
                xmlns:def="http://www.cdisc.org/ns/def/v2.1">
                <Description>
                    <TranslatedText>Date/Time of Collection</TranslatedText>
                </Description>
                <def:Origin Type="Derived"/>
            </ItemDef>
            <ItemDef OID="C360.DM.IT.DMDY" Name="DMDY" DataType="integer" Length="50"
                xmlns:def="http://www.cdisc.org/ns/def/v2.1">
                <Description>
                    <TranslatedText>Study Day of Collection</TranslatedText>
                </Description>
                <def:Origin Type="Derived"/>
            </ItemDef>
            <ItemDef OID="C360.EC.IT.DOMAIN" Name="DOMAIN" DataType="text" Length="50"
                xmlns:def="http://www.cdisc.org/ns/def/v2.1">
                <Description>
                    <TranslatedText>Domain Abbreviation</TranslatedText>
                </Description>
                <CodeListRef CodeListOID="CL.EC.DOMAIN"/>
            </ItemDef>
            <ItemDef OID="C360.EC.IT.USUBJID" Name="USUBJID" DataType="text" Length="50"
                xmlns:def="http://www.cdisc.org/ns/def/v2.1">
                <Description>
                    <TranslatedText>Unique Subject Identifier</TranslatedText>
                </Description>
            </ItemDef>
            <ItemDef OID="C360.EC.IT.ECSEQ" Name="ECSEQ" DataType="integer" Length="50"
                xmlns:def="http://www.cdisc.org/ns/def/v2.1">
                <Description>
                    <TranslatedText>Sequence Number</TranslatedText>
                </Description>
            </ItemDef>
            <ItemDef OID="C360.EC.IT.ECGRPID" Name="ECGRPID" DataType="text" Length="50"
                xmlns:def="http://www.cdisc.org/ns/def/v2.1">
                <Description>
                    <TranslatedText>Group ID</TranslatedText>
                </Description>
            </ItemDef>
            <ItemDef OID="C360.EC.IT.ECREFID" Name="ECREFID" DataType="text" Length="50"
                xmlns:def="http://www.cdisc.org/ns/def/v2.1">
                <Description>
                    <TranslatedText>Reference ID</TranslatedText>
                </Description>
            </ItemDef>
            <ItemDef OID="C360.EC.IT.ECSPID" Name="ECSPID" DataType="text" Length="50"
                xmlns:def="http://www.cdisc.org/ns/def/v2.1">
                <Description>
                    <TranslatedText>Sponsor-Defined Identifier</TranslatedText>
                </Description>
            </ItemDef>
            <ItemDef OID="C360.EC.IT.ECLNKID" Name="ECLNKID" DataType="text" Length="50"
                xmlns:def="http://www.cdisc.org/ns/def/v2.1">
                <Description>
                    <TranslatedText>Link ID</TranslatedText>
                </Description>
            </ItemDef>
            <ItemDef OID="C360.EC.IT.ECLNKGRP" Name="ECLNKGRP" DataType="text" Length="50"
                xmlns:def="http://www.cdisc.org/ns/def/v2.1">
                <Description>
                    <TranslatedText>Link Group ID</TranslatedText>
                </Description>
            </ItemDef>
            <ItemDef OID="C360.EC.IT.ECTRT" Name="ECTRT" DataType="text" Length="50"
                xmlns:def="http://www.cdisc.org/ns/def/v2.1"
                def:CommentOID="C360.COM.C360.EC.IT.ECTRT">
                <Description>
                    <TranslatedText>Name of Treatment</TranslatedText>
                </Description>
                <def:Origin Type="Assigned"/>
            </ItemDef>
            <ItemDef OID="C360.EC.IT.ECMOOD" Name="ECMOOD" DataType="text" Length="50"
                xmlns:def="http://www.cdisc.org/ns/def/v2.1">
                <Description>
                    <TranslatedText>Mood</TranslatedText>
                </Description>
                <def:Origin Type="Predecessor">
                    <Description>
                        <TranslatedText>CDASH-EC.ECMOOD</TranslatedText>
                    </Description>
                </def:Origin>
            </ItemDef>
            <ItemDef OID="C360.EC.IT.ECCAT" Name="ECCAT" DataType="text" Length="50"
                xmlns:def="http://www.cdisc.org/ns/def/v2.1">
                <Description>
                    <TranslatedText>Category of Treatment</TranslatedText>
                </Description>
            </ItemDef>
            <ItemDef OID="C360.EC.IT.ECSCAT" Name="ECSCAT" DataType="text" Length="50"
                xmlns:def="http://www.cdisc.org/ns/def/v2.1">
                <Description>
                    <TranslatedText>Subcategory of Treatment</TranslatedText>
                </Description>
            </ItemDef>
            <ItemDef OID="C360.EC.IT.ECPRESP" Name="ECPRESP" DataType="text" Length="50"
                xmlns:def="http://www.cdisc.org/ns/def/v2.1">
                <Description>
                    <TranslatedText>Pre-Specified</TranslatedText>
                </Description>
                <CodeListRef CodeListOID="CL./mdr/root/ct/sdtmct/codelists/C66742"/>
            </ItemDef>
            <ItemDef OID="C360.EC.IT.ECOCCUR" Name="ECOCCUR" DataType="text" Length="50"
                xmlns:def="http://www.cdisc.org/ns/def/v2.1">
                <Description>
                    <TranslatedText>Occurrence</TranslatedText>
                </Description>
                <CodeListRef CodeListOID="CL./mdr/root/ct/sdtmct/codelists/C66742"/>
                <def:Origin Type="Derived"/>
            </ItemDef>
            <ItemDef OID="C360.EC.IT.ECDOSE" Name="ECDOSE" DataType="integer" Length="50"
                xmlns:def="http://www.cdisc.org/ns/def/v2.1">
                <Description>
                    <TranslatedText>Dose</TranslatedText>
                </Description>
                <def:Origin Type="Derived"/>
            </ItemDef>
            <ItemDef OID="C360.EC.IT.ECDOSTXT" Name="ECDOSTXT" DataType="text" Length="50"
                xmlns:def="http://www.cdisc.org/ns/def/v2.1">
                <Description>
                    <TranslatedText>Dose Description</TranslatedText>
                </Description>
                <def:Origin Type="Derived"/>
            </ItemDef>
            <ItemDef OID="C360.EC.IT.ECDOSU" Name="ECDOSU" DataType="text" Length="50"
                xmlns:def="http://www.cdisc.org/ns/def/v2.1">
                <Description>
                    <TranslatedText>Dose Units</TranslatedText>
                </Description>
                <CodeListRef CodeListOID="CL./mdr/root/ct/sdtmct/codelists/C71620"/>
                <def:Origin Type="Predecessor">
                    <Description>
                        <TranslatedText>CDASH-EC.ECDOSU</TranslatedText>
                    </Description>
                </def:Origin>
            </ItemDef>
            <ItemDef OID="C360.EC.IT.ECDOSFRM" Name="ECDOSFRM" DataType="text" Length="50"
                xmlns:def="http://www.cdisc.org/ns/def/v2.1">
                <Description>
                    <TranslatedText>Dose Form</TranslatedText>
                </Description>
                <CodeListRef CodeListOID="CL./mdr/root/ct/sdtmct/codelists/C66726"/>
                <def:Origin Type="Predecessor">
                    <Description>
                        <TranslatedText>CDASH-EC.ECDOSFRM</TranslatedText>
                    </Description>
                </def:Origin>
            </ItemDef>
            <ItemDef OID="C360.EC.IT.ECDOSFRQ" Name="ECDOSFRQ" DataType="text" Length="50"
                xmlns:def="http://www.cdisc.org/ns/def/v2.1">
                <Description>
                    <TranslatedText>Dosing Frequency per Interval</TranslatedText>
                </Description>
                <CodeListRef CodeListOID="CL./mdr/root/ct/sdtmct/codelists/C71113"/>
                <def:Origin Type="Predecessor">
                    <Description>
                        <TranslatedText>CDASH-EC.ECDOSFRQ</TranslatedText>
                    </Description>
                </def:Origin>
            </ItemDef>
            <ItemDef OID="C360.EC.IT.ECDOSTOT" Name="ECDOSTOT" DataType="text" Length="50"
                xmlns:def="http://www.cdisc.org/ns/def/v2.1">
                <Description>
                    <TranslatedText>Total Daily Dose</TranslatedText>
                </Description>
            </ItemDef>
            <ItemDef OID="C360.EC.IT.ECDOSRGM" Name="ECDOSRGM" DataType="text" Length="50"
                xmlns:def="http://www.cdisc.org/ns/def/v2.1">
                <Description>
                    <TranslatedText>Intended Dose Regimen</TranslatedText>
                </Description>
                <def:Origin Type="Predecessor">
                    <Description>
                        <TranslatedText>CDASH-EC.ECDOSRGM</TranslatedText>
                    </Description>
                </def:Origin>
            </ItemDef>
            <ItemDef OID="C360.EC.IT.ECROUTE" Name="ECROUTE" DataType="text" Length="50"
                xmlns:def="http://www.cdisc.org/ns/def/v2.1">
                <Description>
                    <TranslatedText>Route of Administration</TranslatedText>
                </Description>
                <CodeListRef CodeListOID="CL./mdr/root/ct/sdtmct/codelists/C66729"/>
                <def:Origin Type="Predecessor">
                    <Description>
                        <TranslatedText>CDASH-EC.ECROUTE</TranslatedText>
                    </Description>
                </def:Origin>
            </ItemDef>
            <ItemDef OID="C360.EC.IT.ECLOT" Name="ECLOT" DataType="text" Length="50"
                xmlns:def="http://www.cdisc.org/ns/def/v2.1">
                <Description>
                    <TranslatedText>Lot Number</TranslatedText>
                </Description>
                <def:Origin Type="Predecessor">
                    <Description>
                        <TranslatedText>CDASH-EC.ECLOT</TranslatedText>
                    </Description>
                </def:Origin>
            </ItemDef>
            <ItemDef OID="C360.EC.IT.ECLOC" Name="ECLOC" DataType="text" Length="50"
                xmlns:def="http://www.cdisc.org/ns/def/v2.1">
                <Description>
                    <TranslatedText>Location of Dose Administration</TranslatedText>
                </Description>
                <CodeListRef CodeListOID="CL./mdr/root/ct/sdtmct/codelists/C74456"/>
                <def:Origin Type="Predecessor">
                    <Description>
                        <TranslatedText>CDASH-EC.ECLOC</TranslatedText>
                    </Description>
                </def:Origin>
            </ItemDef>
            <ItemDef OID="C360.EC.IT.ECLAT" Name="ECLAT" DataType="text" Length="50"
                xmlns:def="http://www.cdisc.org/ns/def/v2.1">
                <Description>
                    <TranslatedText>Laterality</TranslatedText>
                </Description>
                <CodeListRef CodeListOID="CL./mdr/root/ct/sdtmct/codelists/C99073"/>
                <def:Origin Type="Predecessor">
                    <Description>
                        <TranslatedText>CDASH-EC.ECLAT</TranslatedText>
                    </Description>
                </def:Origin>
            </ItemDef>
            <ItemDef OID="C360.EC.IT.ECDIR" Name="ECDIR" DataType="text" Length="50"
                xmlns:def="http://www.cdisc.org/ns/def/v2.1">
                <Description>
                    <TranslatedText>Directionality</TranslatedText>
                </Description>
                <CodeListRef CodeListOID="CL./mdr/root/ct/sdtmct/codelists/C99074"/>
                <def:Origin Type="Predecessor">
                    <Description>
                        <TranslatedText>CDASH-EC.ECDIR</TranslatedText>
                    </Description>
                </def:Origin>
            </ItemDef>
            <ItemDef OID="C360.EC.IT.ECPORTOT" Name="ECPORTOT" DataType="text" Length="50"
                xmlns:def="http://www.cdisc.org/ns/def/v2.1">
                <Description>
                    <TranslatedText>Portion or Totality</TranslatedText>
                </Description>
                <CodeListRef CodeListOID="CL./mdr/root/ct/sdtmct/codelists/C99075"/>
            </ItemDef>
            <ItemDef OID="C360.EC.IT.ECFAST" Name="ECFAST" DataType="text" Length="50"
                xmlns:def="http://www.cdisc.org/ns/def/v2.1">
                <Description>
                    <TranslatedText>Fasting Status</TranslatedText>
                </Description>
                <CodeListRef CodeListOID="CL./mdr/root/ct/sdtmct/codelists/C66742"/>
                <def:Origin Type="Derived"/>
            </ItemDef>
            <ItemDef OID="C360.EC.IT.ECPSTRG" Name="ECPSTRG" DataType="integer" Length="50"
                xmlns:def="http://www.cdisc.org/ns/def/v2.1">
                <Description>
                    <TranslatedText>Pharmaceutical Strength</TranslatedText>
                </Description>
            </ItemDef>
            <ItemDef OID="C360.EC.IT.ECPSTRGU" Name="ECPSTRGU" DataType="text" Length="50"
                xmlns:def="http://www.cdisc.org/ns/def/v2.1">
                <Description>
                    <TranslatedText>Pharmaceutical Strength Units</TranslatedText>
                </Description>
            </ItemDef>
            <ItemDef OID="C360.EC.IT.ECADJ" Name="ECADJ" DataType="text" Length="50"
                xmlns:def="http://www.cdisc.org/ns/def/v2.1">
                <Description>
                    <TranslatedText>Reason for Dose Adjustment</TranslatedText>
                </Description>
                <def:Origin Type="Derived"/>
            </ItemDef>
            <ItemDef OID="C360.EC.IT.EPOCH" Name="EPOCH" DataType="text" Length="50"
                xmlns:def="http://www.cdisc.org/ns/def/v2.1">
                <Description>
                    <TranslatedText>Epoch</TranslatedText>
                </Description>
                <CodeListRef CodeListOID="CL./mdr/root/ct/sdtmct/codelists/C99079"/>
            </ItemDef>
            <ItemDef OID="C360.EC.IT.ECSTDTC" Name="ECSTDTC" DataType="datetime" Length="50"
                xmlns:def="http://www.cdisc.org/ns/def/v2.1">
                <Description>
                    <TranslatedText>Start Date/Time of Treatment</TranslatedText>
                </Description>
                <def:Origin Type="Derived"/>
            </ItemDef>
            <ItemDef OID="C360.EC.IT.ECENDTC" Name="ECENDTC" DataType="datetime" Length="50"
                xmlns:def="http://www.cdisc.org/ns/def/v2.1">
                <Description>
                    <TranslatedText>End Date/Time of Treatment</TranslatedText>
                </Description>
                <def:Origin Type="Derived"/>
            </ItemDef>
            <ItemDef OID="C360.EC.IT.ECSTDY" Name="ECSTDY" DataType="integer" Length="50"
                xmlns:def="http://www.cdisc.org/ns/def/v2.1">
                <Description>
                    <TranslatedText>Study Day of Start of Treatment</TranslatedText>
                </Description>
                <def:Origin Type="Derived"/>
            </ItemDef>
            <ItemDef OID="C360.EC.IT.ECENDY" Name="ECENDY" DataType="integer" Length="50"
                xmlns:def="http://www.cdisc.org/ns/def/v2.1">
                <Description>
                    <TranslatedText>Study Day of End of Treatment</TranslatedText>
                </Description>
                <def:Origin Type="Derived"/>
            </ItemDef>
            <ItemDef OID="C360.EC.IT.ECDUR" Name="ECDUR" DataType="datetime" Length="50"
                xmlns:def="http://www.cdisc.org/ns/def/v2.1">
                <Description>
                    <TranslatedText>Duration of Treatment</TranslatedText>
                </Description>
            </ItemDef>
            <ItemDef OID="C360.EC.IT.ECTPT" Name="ECTPT" DataType="text" Length="50"
                xmlns:def="http://www.cdisc.org/ns/def/v2.1">
                <Description>
                    <TranslatedText>Planned Time Point Name</TranslatedText>
                </Description>
            </ItemDef>
            <ItemDef OID="C360.EC.IT.ECTPTNUM" Name="ECTPTNUM" DataType="integer" Length="50"
                xmlns:def="http://www.cdisc.org/ns/def/v2.1">
                <Description>
                    <TranslatedText>Planned Time Point Number</TranslatedText>
                </Description>
            </ItemDef>
            <ItemDef OID="C360.EC.IT.ECELTM" Name="ECELTM" DataType="datetime" Length="50"
                xmlns:def="http://www.cdisc.org/ns/def/v2.1">
                <Description>
                    <TranslatedText>Planned Elapsed Time from Time Point Ref</TranslatedText>
                </Description>
            </ItemDef>
            <ItemDef OID="C360.EC.IT.ECTPTREF" Name="ECTPTREF" DataType="text" Length="50"
                xmlns:def="http://www.cdisc.org/ns/def/v2.1">
                <Description>
                    <TranslatedText>Time Point Reference</TranslatedText>
                </Description>
            </ItemDef>
            <ItemDef OID="C360.EC.IT.ECRFTDTC" Name="ECRFTDTC" DataType="datetime" Length="50"
                xmlns:def="http://www.cdisc.org/ns/def/v2.1">
                <Description>
                    <TranslatedText>Date/Time of Reference Time Point</TranslatedText>
                </Description>
            </ItemDef>
            <ItemDef OID="C360.BC.VLM.ProtocolMilestone.DSTERM.DSSTDY.DSSTDY"
                Name="DSSTDY-ProtocolMilestone" DataType="integer" Length="50"
                xmlns:def="http://www.cdisc.org/ns/def/v2.1">
                <Description>
                    <TranslatedText>DSSTDY_Protocol Milestone</TranslatedText>
                </Description>
            </ItemDef>
            <ItemDef OID="C360.BC.VLM.ProtocolMilestone.DSTERM.DSTERM.DSTERM"
                Name="DSTERM-ProtocolMilestone" DataType="text" Length="50"
                xmlns:def="http://www.cdisc.org/ns/def/v2.1">
                <Description>
                    <TranslatedText>DSTERM_Protocol Milestone</TranslatedText>
                </Description>
                <def:Origin Type="Predecessor">
                    <Description>
                        <TranslatedText>CDASH-DS.DSTERM</TranslatedText>
                    </Description>
                </def:Origin>
            </ItemDef>
            <ItemDef OID="C360.BC.VLM.ProtocolMilestone.DSTERM.DSDECOD.DSDECOD"
                Name="DSDECOD-ProtocolMilestone" DataType="text" Length="50"
                xmlns:def="http://www.cdisc.org/ns/def/v2.1">
                <Description>
                    <TranslatedText>DSDECOD_Protocol Milestone</TranslatedText>
                </Description>
                <CodeListRef
                    CodeListOID="C360.CL.BC.ProtocolMilestone.DSDECOD./mdr/root/ct/sdtmct/codelists/C66727"/>
                <def:Origin Type="Predecessor">
                    <Description>
                        <TranslatedText>CDASH-DS.DSDECOD</TranslatedText>
                    </Description>
                </def:Origin>
            </ItemDef>
            <ItemDef OID="C360.BC.VLM.ProtocolMilestone.DSTERM.DSCAT.DSCAT"
                Name="DSCAT-ProtocolMilestone" DataType="text" Length="50"
                xmlns:def="http://www.cdisc.org/ns/def/v2.1">
                <Description>
                    <TranslatedText>DSCAT_Protocol Milestone</TranslatedText>
                </Description>
                <CodeListRef
                    CodeListOID="C360.CL.BC.ProtocolMilestone.DSCAT./mdr/root/ct/sdtmct/codelists/C74558"/>
                <def:Origin Type="Predecessor">
                    <Description>
                        <TranslatedText>CDASH-DS.DSCAT</TranslatedText>
                    </Description>
                </def:Origin>
            </ItemDef>
            <ItemDef OID="C360.BC.VLM.ProtocolMilestone.DSTERM.DSSTDTC.DSSTDTC"
                Name="DSSTDTC-ProtocolMilestone" DataType="datetime" Length="50"
                xmlns:def="http://www.cdisc.org/ns/def/v2.1">
                <Description>
                    <TranslatedText>DSSTDTC_Protocol Milestone</TranslatedText>
                </Description>
                <def:Origin Type="Derived"/>
            </ItemDef>
            <ItemDef OID="C360.BC.VLM.DispositionEvent.DSTERM.DSSTDTC.DSSTDTC"
                Name="DSSTDTC-DispositionEvent" DataType="datetime" Length="50"
                xmlns:def="http://www.cdisc.org/ns/def/v2.1">
                <Description>
                    <TranslatedText>DSSTDTC_DispositionEvent</TranslatedText>
                </Description>
                <def:Origin Type="Derived"/>
            </ItemDef>
            <ItemDef OID="C360.BC.VLM.DispositionEvent.DSTERM.DSTERM.DSTERM"
                Name="DSTERM-DispositionEvent" DataType="text" Length="50"
                xmlns:def="http://www.cdisc.org/ns/def/v2.1">
                <Description>
                    <TranslatedText>DSTERM_DispositionEvent</TranslatedText>
                </Description>
                <def:Origin Type="Predecessor">
                    <Description>
                        <TranslatedText>CDASH-DS.DSTERM</TranslatedText>
                    </Description>
                </def:Origin>
            </ItemDef>
            <ItemDef OID="C360.BC.VLM.DispositionEvent.DSTERM.DSSTDY.DSSTDY"
                Name="DSSTDY-DispositionEvent" DataType="integer" Length="50"
                xmlns:def="http://www.cdisc.org/ns/def/v2.1">
                <Description>
                    <TranslatedText>DSSTDY_DispositionEvent</TranslatedText>
                </Description>
            </ItemDef>
            <ItemDef OID="C360.BC.VLM.DispositionEvent.DSTERM.DSCAT.DSCAT"
                Name="DSCAT-DispositionEvent" DataType="text" Length="50"
                xmlns:def="http://www.cdisc.org/ns/def/v2.1">
                <Description>
                    <TranslatedText>DSCAT_DispositionEvent</TranslatedText>
                </Description>
                <CodeListRef
                    CodeListOID="C360.CL.BC.DispositionEvent.DSCAT./mdr/root/ct/sdtmct/codelists/C74558"/>
                <def:Origin Type="Predecessor">
                    <Description>
                        <TranslatedText>CDASH-DS.DSCAT</TranslatedText>
                    </Description>
                </def:Origin>
            </ItemDef>
            <ItemDef OID="C360.BC.VLM.DispositionEvent.DSTERM.EPOCH.EPOCH"
                Name="EPOCH-DispositionEvent" DataType="text" Length="50"
                xmlns:def="http://www.cdisc.org/ns/def/v2.1">
                <Description>
                    <TranslatedText>EPOCH_DispositionEvent</TranslatedText>
                </Description>
                <CodeListRef
                    CodeListOID="C360.CL.BC.DispositionEvent.EPOCH./mdr/root/ct/sdtmct/codelists/C99079"/>
                <def:Origin Type="Derived"/>
            </ItemDef>
            <ItemDef OID="C360.BC.VLM.DispositionEvent.DSTERM.DSDECOD.DSDECOD"
                Name="DSDECOD-DispositionEvent" DataType="text" Length="50"
                xmlns:def="http://www.cdisc.org/ns/def/v2.1">
                <Description>
                    <TranslatedText>DSDECOD_DispositionEvent</TranslatedText>
                </Description>
                <CodeListRef
                    CodeListOID="C360.CL.BC.DispositionEvent.DSDECOD./mdr/root/ct/sdtmct/codelists/C66727"/>
                <def:Origin Type="Predecessor">
                    <Description>
                        <TranslatedText>CDASH-DS.DSDECOD</TranslatedText>
                    </Description>
                </def:Origin>
            </ItemDef>
            <ItemDef OID="C360.DS.IT.DOMAIN" Name="DOMAIN" DataType="text" Length="50"
                xmlns:def="http://www.cdisc.org/ns/def/v2.1">
                <Description>
                    <TranslatedText>Domain Abbreviation</TranslatedText>
                </Description>
                <CodeListRef CodeListOID="CL.DS.DOMAIN"/>
            </ItemDef>
            <ItemDef OID="C360.DS.IT.USUBJID" Name="USUBJID" DataType="text" Length="50"
                xmlns:def="http://www.cdisc.org/ns/def/v2.1">
                <Description>
                    <TranslatedText>Unique Subject Identifier</TranslatedText>
                </Description>
            </ItemDef>
            <ItemDef OID="C360.DS.IT.DSSEQ" Name="DSSEQ" DataType="integer" Length="50"
                xmlns:def="http://www.cdisc.org/ns/def/v2.1">
                <Description>
                    <TranslatedText>Sequence Number</TranslatedText>
                </Description>
            </ItemDef>
            <ItemDef OID="C360.DS.IT.DSGRPID" Name="DSGRPID" DataType="text" Length="50"
                xmlns:def="http://www.cdisc.org/ns/def/v2.1">
                <Description>
                    <TranslatedText>Group ID</TranslatedText>
                </Description>
            </ItemDef>
            <ItemDef OID="C360.DS.IT.DSREFID" Name="DSREFID" DataType="text" Length="50"
                xmlns:def="http://www.cdisc.org/ns/def/v2.1">
                <Description>
                    <TranslatedText>Reference ID</TranslatedText>
                </Description>
            </ItemDef>
            <ItemDef OID="C360.DS.IT.DSSPID" Name="DSSPID" DataType="text" Length="50"
                xmlns:def="http://www.cdisc.org/ns/def/v2.1">
                <Description>
                    <TranslatedText>Sponsor-Defined Identifier</TranslatedText>
                </Description>
            </ItemDef>
            <ItemDef OID="C360.DS.IT.DSTERM" Name="DSTERM" DataType="text" Length="50"
                xmlns:def="http://www.cdisc.org/ns/def/v2.1">
                <Description>
                    <TranslatedText>Reported Term for the Disposition Event</TranslatedText>
                </Description>
                <def:ValueListRef ValueListOID="C360.VLM.DSTERM"/>
            </ItemDef>
            <ItemDef OID="C360.DS.IT.DSDECOD" Name="DSDECOD" DataType="text" Length="50"
                xmlns:def="http://www.cdisc.org/ns/def/v2.1">
                <Description>
                    <TranslatedText>Standardized Disposition Term</TranslatedText>
                </Description>
                <CodeListRef CodeListOID="CL./mdr/root/ct/sdtmct/codelists/C66727"/>
                <def:ValueListRef ValueListOID="C360.VLM.DSDECOD"/>
            </ItemDef>
            <ItemDef OID="C360.DS.IT.DSCAT" Name="DSCAT" DataType="text" Length="50"
                xmlns:def="http://www.cdisc.org/ns/def/v2.1">
                <Description>
                    <TranslatedText>Category for Disposition Event</TranslatedText>
                </Description>
                <CodeListRef CodeListOID="CL./mdr/root/ct/sdtmct/codelists/C74558"/>
                <def:ValueListRef ValueListOID="C360.VLM.DSCAT"/>
            </ItemDef>
            <ItemDef OID="C360.DS.IT.DSSCAT" Name="DSSCAT" DataType="text" Length="50"
                xmlns:def="http://www.cdisc.org/ns/def/v2.1">
                <Description>
                    <TranslatedText>Subcategory for Disposition Event</TranslatedText>
                </Description>
            </ItemDef>
            <ItemDef OID="C360.DS.IT.EPOCH" Name="EPOCH" DataType="text" Length="50"
                xmlns:def="http://www.cdisc.org/ns/def/v2.1">
                <Description>
                    <TranslatedText>Epoch</TranslatedText>
                </Description>
                <CodeListRef CodeListOID="CL./mdr/root/ct/sdtmct/codelists/C99079"/>
                <def:ValueListRef ValueListOID="C360.VLM.EPOCH"/>
            </ItemDef>
            <ItemDef OID="C360.DS.IT.DSDTC" Name="DSDTC" DataType="datetime" Length="50"
                xmlns:def="http://www.cdisc.org/ns/def/v2.1">
                <Description>
                    <TranslatedText>Date/Time of Collection</TranslatedText>
                </Description>
            </ItemDef>
            <ItemDef OID="C360.DS.IT.DSSTDTC" Name="DSSTDTC" DataType="datetime" Length="50"
                xmlns:def="http://www.cdisc.org/ns/def/v2.1">
                <Description>
                    <TranslatedText>Start Date/Time of Disposition Event</TranslatedText>
                </Description>
                <def:ValueListRef ValueListOID="C360.VLM.DSSTDTC"/>
            </ItemDef>
            <ItemDef OID="C360.DS.IT.DSSTDY" Name="DSSTDY" DataType="integer" Length="50"
                xmlns:def="http://www.cdisc.org/ns/def/v2.1">
                <Description>
                    <TranslatedText>Study Day of Start of Disposition Event</TranslatedText>
                </Description>
                <def:ValueListRef ValueListOID="C360.VLM.DSSTDY"/>
            </ItemDef>
            <ItemDef OID="C360.AE.IT.DOMAIN" Name="DOMAIN" DataType="text" Length="50"
                xmlns:def="http://www.cdisc.org/ns/def/v2.1">
                <Description>
                    <TranslatedText>Domain Abbreviation</TranslatedText>
                </Description>
                <CodeListRef CodeListOID="CL.AE.DOMAIN"/>
            </ItemDef>
            <ItemDef OID="C360.AE.IT.USUBJID" Name="USUBJID" DataType="text" Length="50"
                xmlns:def="http://www.cdisc.org/ns/def/v2.1">
                <Description>
                    <TranslatedText>Unique Subject Identifier</TranslatedText>
                </Description>
            </ItemDef>
            <ItemDef OID="C360.AE.IT.AESEQ" Name="AESEQ" DataType="integer" Length="50"
                xmlns:def="http://www.cdisc.org/ns/def/v2.1">
                <Description>
                    <TranslatedText>Sequence Number</TranslatedText>
                </Description>
            </ItemDef>
            <ItemDef OID="C360.AE.IT.AEGRPID" Name="AEGRPID" DataType="text" Length="50"
                xmlns:def="http://www.cdisc.org/ns/def/v2.1">
                <Description>
                    <TranslatedText>Group ID</TranslatedText>
                </Description>
            </ItemDef>
            <ItemDef OID="C360.AE.IT.AEREFID" Name="AEREFID" DataType="text" Length="50"
                xmlns:def="http://www.cdisc.org/ns/def/v2.1">
                <Description>
                    <TranslatedText>Reference ID</TranslatedText>
                </Description>
            </ItemDef>
            <ItemDef OID="C360.AE.IT.AESPID" Name="AESPID" DataType="text" Length="50"
                xmlns:def="http://www.cdisc.org/ns/def/v2.1">
                <Description>
                    <TranslatedText>Sponsor-Defined Identifier</TranslatedText>
                </Description>
            </ItemDef>
            <ItemDef OID="C360.AE.IT.AETERM" Name="AETERM" DataType="text" Length="50"
                xmlns:def="http://www.cdisc.org/ns/def/v2.1">
                <Description>
                    <TranslatedText>Reported Term for the Adverse Event</TranslatedText>
                </Description>
                <def:Origin Type="Predecessor">
                    <Description>
                        <TranslatedText>CDASH-AE.AETERM</TranslatedText>
                    </Description>
                </def:Origin>
            </ItemDef>
            <ItemDef OID="C360.AE.IT.AEMODIFY" Name="AEMODIFY" DataType="text" Length="50"
                xmlns:def="http://www.cdisc.org/ns/def/v2.1">
                <Description>
                    <TranslatedText>Modified Reported Term</TranslatedText>
                </Description>
                <def:Origin Type="Predecessor">
                    <Description>
                        <TranslatedText>CDASH-AE.AEMODIFY</TranslatedText>
                    </Description>
                </def:Origin>
            </ItemDef>
            <ItemDef OID="C360.AE.IT.AELLT" Name="AELLT" DataType="text" Length="50"
                xmlns:def="http://www.cdisc.org/ns/def/v2.1">
                <Description>
                    <TranslatedText>Lowest Level Term</TranslatedText>
                </Description>
                <CodeListRef CodeListOID="C360.CL.MedDRA"/>
                <def:Origin Type="Predecessor">
                    <Description>
                        <TranslatedText>CDASH-AE.AELLT</TranslatedText>
                    </Description>
                </def:Origin>
            </ItemDef>
            <ItemDef OID="C360.AE.IT.AELLTCD" Name="AELLTCD" DataType="integer" Length="50"
                xmlns:def="http://www.cdisc.org/ns/def/v2.1">
                <Description>
                    <TranslatedText>Lowest Level Term Code</TranslatedText>
                </Description>
                <def:Origin Type="Predecessor">
                    <Description>
                        <TranslatedText>CDASH-AE.AELLTCD</TranslatedText>
                    </Description>
                </def:Origin>
            </ItemDef>
            <ItemDef OID="C360.AE.IT.AEDECOD" Name="AEDECOD" DataType="text" Length="50"
                xmlns:def="http://www.cdisc.org/ns/def/v2.1">
                <Description>
                    <TranslatedText>Dictionary-Derived Term</TranslatedText>
                </Description>
                <def:Origin Type="Predecessor">
                    <Description>
                        <TranslatedText>CDASH-AE.AEDECOD</TranslatedText>
                    </Description>
                </def:Origin>
            </ItemDef>
            <ItemDef OID="C360.AE.IT.AEPTCD" Name="AEPTCD" DataType="integer" Length="50"
                xmlns:def="http://www.cdisc.org/ns/def/v2.1">
                <Description>
                    <TranslatedText>Preferred Term Code</TranslatedText>
                </Description>
                <def:Origin Type="Predecessor">
                    <Description>
                        <TranslatedText>CDASH-AE.AEPTCD</TranslatedText>
                    </Description>
                </def:Origin>
            </ItemDef>
            <ItemDef OID="C360.AE.IT.AEHLT" Name="AEHLT" DataType="text" Length="50"
                xmlns:def="http://www.cdisc.org/ns/def/v2.1">
                <Description>
                    <TranslatedText>High Level Term</TranslatedText>
                </Description>
                <def:Origin Type="Predecessor">
                    <Description>
                        <TranslatedText>CDASH-AE.AEHLT</TranslatedText>
                    </Description>
                </def:Origin>
            </ItemDef>
            <ItemDef OID="C360.AE.IT.AEHLTCD" Name="AEHLTCD" DataType="integer" Length="50"
                xmlns:def="http://www.cdisc.org/ns/def/v2.1">
                <Description>
                    <TranslatedText>High Level Term Code</TranslatedText>
                </Description>
                <def:Origin Type="Predecessor">
                    <Description>
                        <TranslatedText>CDASH-AE.AEHLTCD</TranslatedText>
                    </Description>
                </def:Origin>
            </ItemDef>
            <ItemDef OID="C360.AE.IT.AEHLGT" Name="AEHLGT" DataType="text" Length="50"
                xmlns:def="http://www.cdisc.org/ns/def/v2.1">
                <Description>
                    <TranslatedText>High Level Group Term</TranslatedText>
                </Description>
                <def:Origin Type="Predecessor">
                    <Description>
                        <TranslatedText>CDASH-AE.AEHLGT</TranslatedText>
                    </Description>
                </def:Origin>
            </ItemDef>
            <ItemDef OID="C360.AE.IT.AEHLGTCD" Name="AEHLGTCD" DataType="integer" Length="50"
                xmlns:def="http://www.cdisc.org/ns/def/v2.1">
                <Description>
                    <TranslatedText>High Level Group Term Code</TranslatedText>
                </Description>
                <def:Origin Type="Predecessor">
                    <Description>
                        <TranslatedText>CDASH-AE.AEHLGTCD</TranslatedText>
                    </Description>
                </def:Origin>
            </ItemDef>
            <ItemDef OID="C360.AE.IT.AECAT" Name="AECAT" DataType="text" Length="50"
                xmlns:def="http://www.cdisc.org/ns/def/v2.1">
                <Description>
                    <TranslatedText>Category for Adverse Event</TranslatedText>
                </Description>
            </ItemDef>
            <ItemDef OID="C360.AE.IT.AESCAT" Name="AESCAT" DataType="text" Length="50"
                xmlns:def="http://www.cdisc.org/ns/def/v2.1">
                <Description>
                    <TranslatedText>Subcategory for Adverse Event</TranslatedText>
                </Description>
            </ItemDef>
            <ItemDef OID="C360.AE.IT.AEPRESP" Name="AEPRESP" DataType="text" Length="50"
                xmlns:def="http://www.cdisc.org/ns/def/v2.1">
                <Description>
                    <TranslatedText>Pre-Specified Adverse Event</TranslatedText>
                </Description>
                <CodeListRef CodeListOID="CL./mdr/root/ct/sdtmct/codelists/C66742"/>
            </ItemDef>
            <ItemDef OID="C360.AE.IT.AEBODSYS" Name="AEBODSYS" DataType="text" Length="50"
                xmlns:def="http://www.cdisc.org/ns/def/v2.1">
                <Description>
                    <TranslatedText>Body System or Organ Class</TranslatedText>
                </Description>
                <def:Origin Type="Predecessor">
                    <Description>
                        <TranslatedText>CDASH-AE.AEBODSYS</TranslatedText>
                    </Description>
                </def:Origin>
            </ItemDef>
            <ItemDef OID="C360.AE.IT.AEBDSYCD" Name="AEBDSYCD" DataType="integer" Length="50"
                xmlns:def="http://www.cdisc.org/ns/def/v2.1">
                <Description>
                    <TranslatedText>Body System or Organ Class Code</TranslatedText>
                </Description>
            </ItemDef>
            <ItemDef OID="C360.AE.IT.AESOC" Name="AESOC" DataType="text" Length="50"
                xmlns:def="http://www.cdisc.org/ns/def/v2.1">
                <Description>
                    <TranslatedText>Primary System Organ Class</TranslatedText>
                </Description>
            </ItemDef>
            <ItemDef OID="C360.AE.IT.AESOCCD" Name="AESOCCD" DataType="integer" Length="50"
                xmlns:def="http://www.cdisc.org/ns/def/v2.1">
                <Description>
                    <TranslatedText>Primary System Organ Class Code</TranslatedText>
                </Description>
            </ItemDef>
            <ItemDef OID="C360.AE.IT.AELOC" Name="AELOC" DataType="text" Length="50"
                xmlns:def="http://www.cdisc.org/ns/def/v2.1">
                <Description>
                    <TranslatedText>Location of Event</TranslatedText>
                </Description>
                <CodeListRef CodeListOID="CL./mdr/root/ct/sdtmct/codelists/C74456"/>
            </ItemDef>
            <ItemDef OID="C360.AE.IT.AESEV" Name="AESEV" DataType="text" Length="50"
                xmlns:def="http://www.cdisc.org/ns/def/v2.1">
                <Description>
                    <TranslatedText>Severity/Intensity</TranslatedText>
                </Description>
                <CodeListRef CodeListOID="CL./mdr/root/ct/sdtmct/codelists/C66769"/>
                <def:Origin Type="Predecessor">
                    <Description>
                        <TranslatedText>CDASH-AE.AESEV</TranslatedText>
                    </Description>
                </def:Origin>
            </ItemDef>
            <ItemDef OID="C360.AE.IT.AESER" Name="AESER" DataType="text" Length="50"
                xmlns:def="http://www.cdisc.org/ns/def/v2.1">
                <Description>
                    <TranslatedText>Serious Event</TranslatedText>
                </Description>
                <CodeListRef CodeListOID="CL./mdr/root/ct/sdtmct/codelists/C66742"/>
                <def:Origin Type="Predecessor">
                    <Description>
                        <TranslatedText>CDASH-AE.AESER</TranslatedText>
                    </Description>
                </def:Origin>
            </ItemDef>
            <ItemDef OID="C360.AE.IT.AEACN" Name="AEACN" DataType="text" Length="50"
                xmlns:def="http://www.cdisc.org/ns/def/v2.1">
                <Description>
                    <TranslatedText>Action Taken with Study Treatment</TranslatedText>
                </Description>
                <CodeListRef CodeListOID="CL./mdr/root/ct/sdtmct/codelists/C66767"/>
            </ItemDef>
            <ItemDef OID="C360.AE.IT.AEACNOTH" Name="AEACNOTH" DataType="text" Length="50"
                xmlns:def="http://www.cdisc.org/ns/def/v2.1">
                <Description>
                    <TranslatedText>Other Action Taken</TranslatedText>
                </Description>
            </ItemDef>
            <ItemDef OID="C360.AE.IT.AEREL" Name="AEREL" DataType="text" Length="50"
                xmlns:def="http://www.cdisc.org/ns/def/v2.1">
                <Description>
                    <TranslatedText>Causality</TranslatedText>
                </Description>
            </ItemDef>
            <ItemDef OID="C360.AE.IT.AERELNST" Name="AERELNST" DataType="text" Length="50"
                xmlns:def="http://www.cdisc.org/ns/def/v2.1">
                <Description>
                    <TranslatedText>Relationship to Non-Study Treatment</TranslatedText>
                </Description>
            </ItemDef>
            <ItemDef OID="C360.AE.IT.AEPATT" Name="AEPATT" DataType="text" Length="50"
                xmlns:def="http://www.cdisc.org/ns/def/v2.1">
                <Description>
                    <TranslatedText>Pattern of Adverse Event</TranslatedText>
                </Description>
            </ItemDef>
            <ItemDef OID="C360.AE.IT.AEOUT" Name="AEOUT" DataType="text" Length="50"
                xmlns:def="http://www.cdisc.org/ns/def/v2.1">
                <Description>
                    <TranslatedText>Outcome of Adverse Event</TranslatedText>
                </Description>
                <CodeListRef CodeListOID="CL./mdr/root/ct/sdtmct/codelists/C66768"/>
                <def:Origin Type="Predecessor">
                    <Description>
                        <TranslatedText>CDASH-AE.AEOUT</TranslatedText>
                    </Description>
                </def:Origin>
            </ItemDef>
            <ItemDef OID="C360.AE.IT.AESCAN" Name="AESCAN" DataType="text" Length="50"
                xmlns:def="http://www.cdisc.org/ns/def/v2.1">
                <Description>
                    <TranslatedText>Involves Cancer</TranslatedText>
                </Description>
                <CodeListRef CodeListOID="CL./mdr/root/ct/sdtmct/codelists/C66742"/>
                <def:Origin Type="Predecessor">
                    <Description>
                        <TranslatedText>CDASH-AE.AESCAN</TranslatedText>
                    </Description>
                </def:Origin>
            </ItemDef>
            <ItemDef OID="C360.AE.IT.AESCONG" Name="AESCONG" DataType="text" Length="50"
                xmlns:def="http://www.cdisc.org/ns/def/v2.1">
                <Description>
                    <TranslatedText>Congenital Anomaly or Birth Defect</TranslatedText>
                </Description>
                <CodeListRef CodeListOID="CL./mdr/root/ct/sdtmct/codelists/C66742"/>
                <def:Origin Type="Predecessor">
                    <Description>
                        <TranslatedText>CDASH-AE.AESCONG</TranslatedText>
                    </Description>
                </def:Origin>
            </ItemDef>
            <ItemDef OID="C360.AE.IT.AESDISAB" Name="AESDISAB" DataType="text" Length="50"
                xmlns:def="http://www.cdisc.org/ns/def/v2.1">
                <Description>
                    <TranslatedText>Persist or Signif Disability/Incapacity</TranslatedText>
                </Description>
                <CodeListRef CodeListOID="CL./mdr/root/ct/sdtmct/codelists/C66742"/>
                <def:Origin Type="Predecessor">
                    <Description>
                        <TranslatedText>CDASH-AE.AESDISAB</TranslatedText>
                    </Description>
                </def:Origin>
            </ItemDef>
            <ItemDef OID="C360.AE.IT.AESDTH" Name="AESDTH" DataType="text" Length="50"
                xmlns:def="http://www.cdisc.org/ns/def/v2.1">
                <Description>
                    <TranslatedText>Results in Death</TranslatedText>
                </Description>
                <CodeListRef CodeListOID="CL./mdr/root/ct/sdtmct/codelists/C66742"/>
                <def:Origin Type="Predecessor">
                    <Description>
                        <TranslatedText>CDASH-AE.AESDTH</TranslatedText>
                    </Description>
                </def:Origin>
            </ItemDef>
            <ItemDef OID="C360.AE.IT.AESHOSP" Name="AESHOSP" DataType="text" Length="50"
                xmlns:def="http://www.cdisc.org/ns/def/v2.1">
                <Description>
                    <TranslatedText>Requires or Prolongs Hospitalization</TranslatedText>
                </Description>
                <CodeListRef CodeListOID="CL./mdr/root/ct/sdtmct/codelists/C66742"/>
                <def:Origin Type="Predecessor">
                    <Description>
                        <TranslatedText>CDASH-AE.AESHOSP</TranslatedText>
                    </Description>
                </def:Origin>
            </ItemDef>
            <ItemDef OID="C360.AE.IT.AESLIFE" Name="AESLIFE" DataType="text" Length="50"
                xmlns:def="http://www.cdisc.org/ns/def/v2.1">
                <Description>
                    <TranslatedText>Is Life Threatening</TranslatedText>
                </Description>
                <CodeListRef CodeListOID="CL./mdr/root/ct/sdtmct/codelists/C66742"/>
                <def:Origin Type="Predecessor">
                    <Description>
                        <TranslatedText>CDASH-AE.AESLIFE</TranslatedText>
                    </Description>
                </def:Origin>
            </ItemDef>
            <ItemDef OID="C360.AE.IT.AESOD" Name="AESOD" DataType="text" Length="50"
                xmlns:def="http://www.cdisc.org/ns/def/v2.1">
                <Description>
                    <TranslatedText>Occurred with Overdose</TranslatedText>
                </Description>
                <CodeListRef CodeListOID="CL./mdr/root/ct/sdtmct/codelists/C66742"/>
                <def:Origin Type="Predecessor">
                    <Description>
                        <TranslatedText>CDASH-AE.AESOD</TranslatedText>
                    </Description>
                </def:Origin>
            </ItemDef>
            <ItemDef OID="C360.AE.IT.AESMIE" Name="AESMIE" DataType="text" Length="50"
                xmlns:def="http://www.cdisc.org/ns/def/v2.1">
                <Description>
                    <TranslatedText>Other Medically Important Serious Event</TranslatedText>
                </Description>
                <CodeListRef CodeListOID="CL./mdr/root/ct/sdtmct/codelists/C66742"/>
                <def:Origin Type="Predecessor">
                    <Description>
                        <TranslatedText>CDASH-AE.AESMIE</TranslatedText>
                    </Description>
                </def:Origin>
            </ItemDef>
            <ItemDef OID="C360.AE.IT.AECONTRT" Name="AECONTRT" DataType="text" Length="50"
                xmlns:def="http://www.cdisc.org/ns/def/v2.1">
                <Description>
                    <TranslatedText>Concomitant or Additional Trtmnt Given</TranslatedText>
                </Description>
                <CodeListRef CodeListOID="CL./mdr/root/ct/sdtmct/codelists/C66742"/>
            </ItemDef>
            <ItemDef OID="C360.AE.IT.AETOXGR" Name="AETOXGR" DataType="text" Length="50"
                xmlns:def="http://www.cdisc.org/ns/def/v2.1">
                <Description>
                    <TranslatedText>Standard Toxicity Grade</TranslatedText>
                </Description>
            </ItemDef>
            <ItemDef OID="C360.AE.IT.AESTDTC" Name="AESTDTC" DataType="datetime" Length="50"
                xmlns:def="http://www.cdisc.org/ns/def/v2.1">
                <Description>
                    <TranslatedText>Start Date/Time of Adverse Event</TranslatedText>
                </Description>
                <def:Origin Type="Predecessor">
                    <Description>
                        <TranslatedText>CDASH-AE.AESTDAT</TranslatedText>
                    </Description>
                </def:Origin>
            </ItemDef>
            <ItemDef OID="C360.AE.IT.AEENDTC" Name="AEENDTC" DataType="datetime" Length="50"
                xmlns:def="http://www.cdisc.org/ns/def/v2.1">
                <Description>
                    <TranslatedText>End Date/Time of Adverse Event</TranslatedText>
                </Description>
                <def:Origin Type="Predecessor">
                    <Description>
                        <TranslatedText>CDASH-AE.AEEDAT</TranslatedText>
                    </Description>
                </def:Origin>
            </ItemDef>
            <ItemDef OID="C360.AE.IT.AESTDY" Name="AESTDY" DataType="integer" Length="50"
                xmlns:def="http://www.cdisc.org/ns/def/v2.1">
                <Description>
                    <TranslatedText>Study Day of Start of Adverse Event</TranslatedText>
                </Description>
            </ItemDef>
            <ItemDef OID="C360.AE.IT.AEENDY" Name="AEENDY" DataType="integer" Length="50"
                xmlns:def="http://www.cdisc.org/ns/def/v2.1">
                <Description>
                    <TranslatedText>Study Day of End of Adverse Event</TranslatedText>
                </Description>
            </ItemDef>
            <ItemDef OID="C360.AE.IT.AEDUR" Name="AEDUR" DataType="datetime" Length="50"
                xmlns:def="http://www.cdisc.org/ns/def/v2.1">
                <Description>
                    <TranslatedText>Duration of Adverse Event</TranslatedText>
                </Description>
            </ItemDef>
            <ItemDef OID="C360.AE.IT.AEENRF" Name="AEENRF" DataType="text" Length="50"
                xmlns:def="http://www.cdisc.org/ns/def/v2.1">
                <Description>
                    <TranslatedText>End Relative to Reference Period</TranslatedText>
                </Description>
                <CodeListRef CodeListOID="CL./mdr/root/ct/sdtmct/codelists/C66728"/>
                <def:Origin Type="Predecessor">
                    <Description>
                        <TranslatedText>CDASH-AE.AEENRF</TranslatedText>
                    </Description>
                </def:Origin>
            </ItemDef>
            <ItemDef OID="C360.AE.IT.AEENRTPT" Name="AEENRTPT" DataType="text" Length="50"
                xmlns:def="http://www.cdisc.org/ns/def/v2.1">
                <Description>
                    <TranslatedText>End Relative to Reference Time Point</TranslatedText>
                </Description>
                <CodeListRef CodeListOID="CL./mdr/root/ct/sdtmct/codelists/C66728"/>
            </ItemDef>
            <ItemDef OID="C360.AE.IT.AEENTPT" Name="AEENTPT" DataType="text" Length="50"
                xmlns:def="http://www.cdisc.org/ns/def/v2.1">
                <Description>
                    <TranslatedText>End Reference Time Point</TranslatedText>
                </Description>
            </ItemDef>
            <ItemDef OID="C360.BC.VLM.BodyMassIndex.VSTESTCD.VSSTRESN.VSSTRESN"
                Name="VSSTRESN-BodyMassIndex" DataType="float" Length="50"
                xmlns:def="http://www.cdisc.org/ns/def/v2.1">
                <Description>
                    <TranslatedText>VSSTRESN_Body Mass Index</TranslatedText>
                </Description>
                <def:Origin Type="Derived"/>
            </ItemDef>
            <ItemDef OID="C360.BC.VLM.BodyMassIndex.VSTESTCD.VSTESTCD.VSTESTCD"
                Name="VSTESTCD-BodyMassIndex" DataType="text" Length="50"
                xmlns:def="http://www.cdisc.org/ns/def/v2.1">
                <Description>
                    <TranslatedText>VSTESTCD_Body Mass Index</TranslatedText>
                </Description>
                <CodeListRef
                    CodeListOID="C360.CL.BC.BodyMassIndex.VSTESTCD./mdr/root/ct/sdtmct/codelists/C66741"
                />
            </ItemDef>
            <ItemDef OID="C360.BC.VLM.BodyMassIndex.VSTESTCD.VSSTRESU.VSSTRESU"
                Name="VSSTRESU-BodyMassIndex" DataType="text" Length="50"
                xmlns:def="http://www.cdisc.org/ns/def/v2.1">
                <Description>
                    <TranslatedText>VSSTRESU_Body Mass Index</TranslatedText>
                </Description>
                <CodeListRef
                    CodeListOID="C360.CL.BC.BodyMassIndex.VSSTRESU./mdr/root/ct/sdtmct/codelists/C66770"
                />
            </ItemDef>
            <ItemDef OID="C360.BC.VLM.BodyMassIndex.VSTESTCD.VSDT.VSDTC" Name="VSDTC-BodyMassIndex"
                DataType="datetime" Length="50" xmlns:def="http://www.cdisc.org/ns/def/v2.1">
                <Description>
                    <TranslatedText>VSDT_Body Mass Index</TranslatedText>
                </Description>
            </ItemDef>
            <ItemDef OID="C360.BC.VLM.BodyMassIndex.VSTESTCD.VSTEST.VSTESTCD"
                Name="VSTESTCD-BodyMassIndex" DataType="text" Length="50"
                xmlns:def="http://www.cdisc.org/ns/def/v2.1">
                <Description>
                    <TranslatedText>VSTEST_Body Mass Index</TranslatedText>
                </Description>
                <CodeListRef
                    CodeListOID="C360.CL.BC.BodyMassIndex.VSTEST./mdr/root/ct/sdtmct/codelists/C66741"
                />
            </ItemDef>
            <ItemDef OID="C360.BC.VLM.SystolicBloodPressure.VSTESTCD.VSSTRESN.VSSTRESN"
                Name="VSSTRESN-SystolicBloodPressure" DataType="float" Length="50"
                xmlns:def="http://www.cdisc.org/ns/def/v2.1">
                <Description>
                    <TranslatedText>VSSTRESN_Systolic Blood Pressure</TranslatedText>
                </Description>
                <def:Origin Type="Derived"/>
            </ItemDef>
            <ItemDef OID="C360.BC.VLM.SystolicBloodPressure.VSTESTCD.VSPOS.VSPOS"
                Name="VSPOS-SystolicBloodPressure" DataType="text" Length="50"
                xmlns:def="http://www.cdisc.org/ns/def/v2.1">
                <Description>
                    <TranslatedText>VSPOS_Systolic Blood Pressure</TranslatedText>
                </Description>
                <CodeListRef
                    CodeListOID="C360.CL.BC.SystolicBloodPressure.VSPOS./mdr/root/ct/sdtmct/codelists/C71148"/>
                <def:Origin Type="Predecessor">
                    <Description>
                        <TranslatedText>CDASH-VS.SYSBP_VSPOS</TranslatedText>
                    </Description>
                </def:Origin>
            </ItemDef>
            <ItemDef OID="C360.BC.VLM.SystolicBloodPressure.VSTESTCD.VSTEST.VSTESTCD"
                Name="VSTESTCD-SystolicBloodPressure" DataType="text" Length="50"
                xmlns:def="http://www.cdisc.org/ns/def/v2.1">
                <Description>
                    <TranslatedText>VSTEST_Systolic Blood Pressure</TranslatedText>
                </Description>
                <CodeListRef
                    CodeListOID="C360.CL.BC.SystolicBloodPressure.VSTEST./mdr/root/ct/sdtmct/codelists/C66741"
                />
            </ItemDef>
            <ItemDef OID="C360.BC.VLM.SystolicBloodPressure.VSTESTCD.VSLAT.VSLAT"
                Name="VSLAT-SystolicBloodPressure" DataType="text" Length="50"
                xmlns:def="http://www.cdisc.org/ns/def/v2.1">
                <Description>
                    <TranslatedText>VSLAT_Systolic Blood Pressure</TranslatedText>
                </Description>
                <CodeListRef
                    CodeListOID="C360.CL.BC.SystolicBloodPressure.VSLAT./mdr/root/ct/sdtmct/codelists/C99073"
                />
            </ItemDef>
            <ItemDef OID="C360.BC.VLM.SystolicBloodPressure.VSTESTCD.VSTESTCD.VSTESTCD"
                Name="VSTESTCD-SystolicBloodPressure" DataType="text" Length="50"
                xmlns:def="http://www.cdisc.org/ns/def/v2.1">
                <Description>
                    <TranslatedText>VSTESTCD_Systolic Blood Pressure</TranslatedText>
                </Description>
                <CodeListRef
                    CodeListOID="C360.CL.BC.SystolicBloodPressure.VSTESTCD./mdr/root/ct/sdtmct/codelists/C66741"
                />
            </ItemDef>
            <ItemDef OID="C360.BC.VLM.SystolicBloodPressure.VSTESTCD.VSDT.VSDTC"
                Name="VSDTC-SystolicBloodPressure" DataType="datetime" Length="50"
                xmlns:def="http://www.cdisc.org/ns/def/v2.1">
                <Description>
                    <TranslatedText>VSDT_Systolic Blood Pressure</TranslatedText>
                </Description>
            </ItemDef>
            <ItemDef OID="C360.BC.VLM.SystolicBloodPressure.VSTESTCD.VSLOC.VSLOC"
                Name="VSLOC-SystolicBloodPressure" DataType="text" Length="50"
                xmlns:def="http://www.cdisc.org/ns/def/v2.1">
                <Description>
                    <TranslatedText>VSLOC_Systolic Blood Pressure</TranslatedText>
                </Description>
                <CodeListRef
                    CodeListOID="C360.CL.BC.SystolicBloodPressure.VSLOC./mdr/root/ct/sdtmct/codelists/C74456"
                />
            </ItemDef>
            <ItemDef OID="C360.BC.VLM.SystolicBloodPressure.VSTESTCD.VSSTRESU.VSSTRESU"
                Name="VSSTRESU-SystolicBloodPressure" DataType="text" Length="50"
                xmlns:def="http://www.cdisc.org/ns/def/v2.1">
                <Description>
                    <TranslatedText>VSSTRESU_Systolic Blood Pressure</TranslatedText>
                </Description>
                <CodeListRef
                    CodeListOID="C360.CL.BC.SystolicBloodPressure.VSSTRESU./mdr/root/ct/sdtmct/codelists/C66770"
                />
            </ItemDef>
            <ItemDef OID="C360.BC.VLM.DiastolicBloodPressure.VSTESTCD.VSTESTCD.VSTESTCD"
                Name="VSTESTCD-DiastolicBloodPressure" DataType="text" Length="50"
                xmlns:def="http://www.cdisc.org/ns/def/v2.1">
                <Description>
                    <TranslatedText>VSTESTCD_Diastolic Blood Pressure</TranslatedText>
                </Description>
                <CodeListRef
                    CodeListOID="C360.CL.BC.DiastolicBloodPressure.VSTESTCD./mdr/root/ct/sdtmct/codelists/C66741"
                />
            </ItemDef>
            <ItemDef OID="C360.BC.VLM.DiastolicBloodPressure.VSTESTCD.VSPOS.VSPOS"
                Name="VSPOS-DiastolicBloodPressure" DataType="text" Length="50"
                xmlns:def="http://www.cdisc.org/ns/def/v2.1">
                <Description>
                    <TranslatedText>VSPOS_Diastolic Blood Pressure</TranslatedText>
                </Description>
                <CodeListRef
                    CodeListOID="C360.CL.BC.DiastolicBloodPressure.VSPOS./mdr/root/ct/sdtmct/codelists/C71148"/>
                <def:Origin Type="Predecessor">
                    <Description>
                        <TranslatedText>CDASH-VS.SYSBP_VSPOS</TranslatedText>
                    </Description>
                </def:Origin>
            </ItemDef>
            <ItemDef OID="C360.BC.VLM.DiastolicBloodPressure.VSTESTCD.VSLAT.VSLAT"
                Name="VSLAT-DiastolicBloodPressure" DataType="text" Length="50"
                xmlns:def="http://www.cdisc.org/ns/def/v2.1">
                <Description>
                    <TranslatedText>VSLAT_Diastolic Blood Pressure</TranslatedText>
                </Description>
                <CodeListRef
                    CodeListOID="C360.CL.BC.DiastolicBloodPressure.VSLAT./mdr/root/ct/sdtmct/codelists/C99073"
                />
            </ItemDef>
            <ItemDef OID="C360.BC.VLM.DiastolicBloodPressure.VSTESTCD.VSLOC.VSLOC"
                Name="VSLOC-DiastolicBloodPressure" DataType="text" Length="50"
                xmlns:def="http://www.cdisc.org/ns/def/v2.1">
                <Description>
                    <TranslatedText>VSLOC_Diastolic Blood Pressure</TranslatedText>
                </Description>
                <CodeListRef
                    CodeListOID="C360.CL.BC.DiastolicBloodPressure.VSLOC./mdr/root/ct/sdtmct/codelists/C74456"
                />
            </ItemDef>
            <ItemDef OID="C360.BC.VLM.DiastolicBloodPressure.VSTESTCD.VSTEST.VSTESTCD"
                Name="VSTESTCD-DiastolicBloodPressure" DataType="text" Length="50"
                xmlns:def="http://www.cdisc.org/ns/def/v2.1">
                <Description>
                    <TranslatedText>VSTEST_Diastolic Blood Pressure</TranslatedText>
                </Description>
                <CodeListRef
                    CodeListOID="C360.CL.BC.DiastolicBloodPressure.VSTEST./mdr/root/ct/sdtmct/codelists/C66741"
                />
            </ItemDef>
            <ItemDef OID="C360.BC.VLM.DiastolicBloodPressure.VSTESTCD.VSSTRESN.VSSTRESN"
                Name="VSSTRESN-DiastolicBloodPressure" DataType="float" Length="50"
                xmlns:def="http://www.cdisc.org/ns/def/v2.1">
                <Description>
                    <TranslatedText>VSSTRESN_Diastolic Blood Pressure</TranslatedText>
                </Description>
                <def:Origin Type="Derived"/>
            </ItemDef>
            <ItemDef OID="C360.BC.VLM.DiastolicBloodPressure.VSTESTCD.VSSTRESU.VSSTRESU"
                Name="VSSTRESU-DiastolicBloodPressure" DataType="text" Length="50"
                xmlns:def="http://www.cdisc.org/ns/def/v2.1">
                <Description>
                    <TranslatedText>VSSTRESU_Diastolic Blood Pressure</TranslatedText>
                </Description>
                <CodeListRef
                    CodeListOID="C360.CL.BC.DiastolicBloodPressure.VSSTRESU./mdr/root/ct/sdtmct/codelists/C66770"
                />
            </ItemDef>
            <ItemDef OID="C360.BC.VLM.DiastolicBloodPressure.VSTESTCD.VSDT.VSDTC"
                Name="VSDTC-DiastolicBloodPressure" DataType="datetime" Length="50"
                xmlns:def="http://www.cdisc.org/ns/def/v2.1">
                <Description>
                    <TranslatedText>VSDT_Diastolic Blood Pressure</TranslatedText>
                </Description>
            </ItemDef>
            <ItemDef OID="C360.BC.VLM.Weight.VSTESTCD.VSTEST.VSTESTCD" Name="VSTESTCD-Weight"
                DataType="text" Length="50" xmlns:def="http://www.cdisc.org/ns/def/v2.1">
                <Description>
                    <TranslatedText>VSTEST_Weight</TranslatedText>
                </Description>
                <CodeListRef
                    CodeListOID="C360.CL.BC.Weight.VSTEST./mdr/root/ct/sdtmct/codelists/C66741"/>
            </ItemDef>
            <ItemDef OID="C360.BC.VLM.Weight.VSTESTCD.VSDT.VSDTC" Name="VSDTC-Weight"
                DataType="datetime" Length="50" xmlns:def="http://www.cdisc.org/ns/def/v2.1">
                <Description>
                    <TranslatedText>VSDT_Weight</TranslatedText>
                </Description>
            </ItemDef>
            <ItemDef OID="C360.BC.VLM.Weight.VSTESTCD.VSSTRESN.VSSTRESN" Name="VSSTRESN-Weight"
                DataType="float" Length="50" xmlns:def="http://www.cdisc.org/ns/def/v2.1">
                <Description>
                    <TranslatedText>VSSTRESN_Weight</TranslatedText>
                </Description>
                <def:Origin Type="Derived"/>
            </ItemDef>
            <ItemDef OID="C360.BC.VLM.Weight.VSTESTCD.VSTESTCD.VSTESTCD" Name="VSTESTCD-Weight"
                DataType="text" Length="50" xmlns:def="http://www.cdisc.org/ns/def/v2.1">
                <Description>
                    <TranslatedText>VSTESTCD_Weight</TranslatedText>
                </Description>
                <CodeListRef
                    CodeListOID="C360.CL.BC.Weight.VSTESTCD./mdr/root/ct/sdtmct/codelists/C66741"/>
            </ItemDef>
            <ItemDef OID="C360.BC.VLM.Weight.VSTESTCD.VSPOS.VSPOS" Name="VSPOS-Weight"
                DataType="text" Length="50" xmlns:def="http://www.cdisc.org/ns/def/v2.1">
                <Description>
                    <TranslatedText>VSPOS_Weight</TranslatedText>
                </Description>
                <CodeListRef
                    CodeListOID="C360.CL.BC.Weight.VSPOS./mdr/root/ct/sdtmct/codelists/C71148"/>
                <def:Origin Type="Predecessor">
                    <Description>
                        <TranslatedText>CDASH-VS.SYSBP_VSPOS</TranslatedText>
                    </Description>
                </def:Origin>
            </ItemDef>
            <ItemDef OID="C360.BC.VLM.Weight.VSTESTCD.VSSTRESU.VSSTRESU" Name="VSSTRESU-Weight"
                DataType="text" Length="50" xmlns:def="http://www.cdisc.org/ns/def/v2.1">
                <Description>
                    <TranslatedText>VSSTRESU_Weight</TranslatedText>
                </Description>
                <CodeListRef
                    CodeListOID="C360.CL.BC.Weight.VSSTRESU./mdr/root/ct/sdtmct/codelists/C66770"/>
            </ItemDef>
            <ItemDef OID="C360.BC.VLM.Height.VSTESTCD.VSPOS.VSPOS" Name="VSPOS-Height"
                DataType="text" Length="50" xmlns:def="http://www.cdisc.org/ns/def/v2.1">
                <Description>
                    <TranslatedText>VSPOS_Height</TranslatedText>
                </Description>
                <CodeListRef
                    CodeListOID="C360.CL.BC.Height.VSPOS./mdr/root/ct/sdtmct/codelists/C71148"/>
                <def:Origin Type="Predecessor">
                    <Description>
                        <TranslatedText>CDASH-VS.SYSBP_VSPOS</TranslatedText>
                    </Description>
                </def:Origin>
            </ItemDef>
            <ItemDef OID="C360.BC.VLM.Height.VSTESTCD.VSSTRESN.VSSTRESN" Name="VSSTRESN-Height"
                DataType="float" Length="50" xmlns:def="http://www.cdisc.org/ns/def/v2.1">
                <Description>
                    <TranslatedText>VSSTRESN_Height</TranslatedText>
                </Description>
                <def:Origin Type="Derived"/>
            </ItemDef>
            <ItemDef OID="C360.BC.VLM.Height.VSTESTCD.VSTESTCD.VSTESTCD" Name="VSTESTCD-Height"
                DataType="text" Length="50" xmlns:def="http://www.cdisc.org/ns/def/v2.1">
                <Description>
                    <TranslatedText>VSTESTCD_Height</TranslatedText>
                </Description>
                <CodeListRef
                    CodeListOID="C360.CL.BC.Height.VSTESTCD./mdr/root/ct/sdtmct/codelists/C66741"/>
            </ItemDef>
            <ItemDef OID="C360.BC.VLM.Height.VSTESTCD.VSDT.VSDTC" Name="VSDTC-Height"
                DataType="datetime" Length="50" xmlns:def="http://www.cdisc.org/ns/def/v2.1">
                <Description>
                    <TranslatedText>VSDT_Height</TranslatedText>
                </Description>
            </ItemDef>
            <ItemDef OID="C360.BC.VLM.Height.VSTESTCD.VSSTRESU.VSSTRESU" Name="VSSTRESU-Height"
                DataType="text" Length="50" xmlns:def="http://www.cdisc.org/ns/def/v2.1">
                <Description>
                    <TranslatedText>VSSTRESU_Height</TranslatedText>
                </Description>
                <CodeListRef
                    CodeListOID="C360.CL.BC.Height.VSSTRESU./mdr/root/ct/sdtmct/codelists/C66770"/>
            </ItemDef>
            <ItemDef OID="C360.BC.VLM.Height.VSTESTCD.VSTEST.VSTESTCD" Name="VSTESTCD-Height"
                DataType="text" Length="50" xmlns:def="http://www.cdisc.org/ns/def/v2.1">
                <Description>
                    <TranslatedText>VSTEST_Height</TranslatedText>
                </Description>
                <CodeListRef
                    CodeListOID="C360.CL.BC.Height.VSTEST./mdr/root/ct/sdtmct/codelists/C66741"/>
            </ItemDef>
            <ItemDef OID="C360.VS.IT.STUDYID" Name="STUDYID" DataType="text" Length="50"
                xmlns:def="http://www.cdisc.org/ns/def/v2.1">
                <Description>
                    <TranslatedText>Study Identifier</TranslatedText>
                </Description>
            </ItemDef>
            <ItemDef OID="C360.VS.IT.DOMAIN" Name="DOMAIN" DataType="text" Length="50"
                xmlns:def="http://www.cdisc.org/ns/def/v2.1">
                <Description>
                    <TranslatedText>Domain Abbreviation</TranslatedText>
                </Description>
                <CodeListRef CodeListOID="CL.VS.DOMAIN"/>
            </ItemDef>
            <ItemDef OID="C360.VS.IT.USUBJID" Name="USUBJID" DataType="text" Length="50"
                xmlns:def="http://www.cdisc.org/ns/def/v2.1">
                <Description>
                    <TranslatedText>Unique Subject Identifier</TranslatedText>
                </Description>
            </ItemDef>
            <ItemDef OID="C360.VS.IT.VSSEQ" Name="VSSEQ" DataType="integer" Length="50"
                xmlns:def="http://www.cdisc.org/ns/def/v2.1">
                <Description>
                    <TranslatedText>Sequence Number</TranslatedText>
                </Description>
            </ItemDef>
            <ItemDef OID="C360.VS.IT.VSGRPID" Name="VSGRPID" DataType="text" Length="50"
                xmlns:def="http://www.cdisc.org/ns/def/v2.1">
                <Description>
                    <TranslatedText>Group ID</TranslatedText>
                </Description>
            </ItemDef>
            <ItemDef OID="C360.VS.IT.VSSPID" Name="VSSPID" DataType="text" Length="50"
                xmlns:def="http://www.cdisc.org/ns/def/v2.1">
                <Description>
                    <TranslatedText>Sponsor-Defined Identifier</TranslatedText>
                </Description>
            </ItemDef>
            <ItemDef OID="C360.VS.IT.VSTESTCD" Name="VSTESTCD" DataType="text" Length="50"
                xmlns:def="http://www.cdisc.org/ns/def/v2.1">
                <Description>
                    <TranslatedText>Vital Signs Test Short Name</TranslatedText>
                </Description>
                <CodeListRef CodeListOID="CL./mdr/root/ct/sdtmct/codelists/C66741"/>
                <def:ValueListRef ValueListOID="C360.VLM.VSTESTCD"/>
            </ItemDef>
            <ItemDef OID="C360.VS.IT.VSTEST" Name="VSTEST" DataType="text" Length="50"
                xmlns:def="http://www.cdisc.org/ns/def/v2.1">
                <Description>
                    <TranslatedText>Vital Signs Test Name</TranslatedText>
                </Description>
                <CodeListRef CodeListOID="CL./mdr/root/ct/sdtmct/codelists/C67153"/>
            </ItemDef>
            <ItemDef OID="C360.VS.IT.VSCAT" Name="VSCAT" DataType="text" Length="50"
                xmlns:def="http://www.cdisc.org/ns/def/v2.1">
                <Description>
                    <TranslatedText>Category for Vital Signs</TranslatedText>
                </Description>
            </ItemDef>
            <ItemDef OID="C360.VS.IT.VSSCAT" Name="VSSCAT" DataType="text" Length="50"
                xmlns:def="http://www.cdisc.org/ns/def/v2.1">
                <Description>
                    <TranslatedText>Subcategory for Vital Signs</TranslatedText>
                </Description>
            </ItemDef>
            <ItemDef OID="C360.VS.IT.VSPOS" Name="VSPOS" DataType="text" Length="50"
                xmlns:def="http://www.cdisc.org/ns/def/v2.1">
                <Description>
                    <TranslatedText>Vital Signs Position of Subject</TranslatedText>
                </Description>
                <CodeListRef CodeListOID="CL./mdr/root/ct/sdtmct/codelists/C71148"/>
                <def:ValueListRef ValueListOID="C360.VLM.VSPOS"/>
            </ItemDef>
            <ItemDef OID="C360.VS.IT.VSORRES" Name="VSORRES" DataType="text" Length="50"
                xmlns:def="http://www.cdisc.org/ns/def/v2.1">
                <Description>
                    <TranslatedText>Result or Finding in Original Units</TranslatedText>
                </Description>
            </ItemDef>
            <ItemDef OID="C360.VS.IT.VSORRESU" Name="VSORRESU" DataType="text" Length="50"
                xmlns:def="http://www.cdisc.org/ns/def/v2.1">
                <Description>
                    <TranslatedText>Original Units</TranslatedText>
                </Description>
                <CodeListRef CodeListOID="CL./mdr/root/ct/sdtmct/codelists/C66770"/>
            </ItemDef>
            <ItemDef OID="C360.VS.IT.VSSTRESC" Name="VSSTRESC" DataType="text" Length="50"
                xmlns:def="http://www.cdisc.org/ns/def/v2.1">
                <Description>
                    <TranslatedText>Character Result/Finding in Std Format</TranslatedText>
                </Description>
            </ItemDef>
            <ItemDef OID="C360.VS.IT.VSSTRESN" Name="VSSTRESN" DataType="integer" Length="50"
                xmlns:def="http://www.cdisc.org/ns/def/v2.1">
                <Description>
                    <TranslatedText>Numeric Result/Finding in Standard Units</TranslatedText>
                </Description>
                <def:ValueListRef ValueListOID="C360.VLM.VSSTRESN"/>
            </ItemDef>
            <ItemDef OID="C360.VS.IT.VSSTRESU" Name="VSSTRESU" DataType="text" Length="50"
                xmlns:def="http://www.cdisc.org/ns/def/v2.1">
                <Description>
                    <TranslatedText>Standard Units</TranslatedText>
                </Description>
                <CodeListRef CodeListOID="CL./mdr/root/ct/sdtmct/codelists/C66770"/>
                <def:ValueListRef ValueListOID="C360.VLM.VSSTRESU"/>
            </ItemDef>
            <ItemDef OID="C360.VS.IT.VSSTAT" Name="VSSTAT" DataType="text" Length="50"
                xmlns:def="http://www.cdisc.org/ns/def/v2.1">
                <Description>
                    <TranslatedText>Completion Status</TranslatedText>
                </Description>
                <CodeListRef CodeListOID="CL./mdr/root/ct/sdtmct/codelists/C66789"/>
            </ItemDef>
            <ItemDef OID="C360.VS.IT.VSREASND" Name="VSREASND" DataType="text" Length="50"
                xmlns:def="http://www.cdisc.org/ns/def/v2.1">
                <Description>
                    <TranslatedText>Reason Not Performed</TranslatedText>
                </Description>
            </ItemDef>
            <ItemDef OID="C360.VS.IT.VSLOC" Name="VSLOC" DataType="text" Length="50"
                xmlns:def="http://www.cdisc.org/ns/def/v2.1">
                <Description>
                    <TranslatedText>Location of Vital Signs Measurement</TranslatedText>
                </Description>
                <CodeListRef CodeListOID="CL./mdr/root/ct/sdtmct/codelists/C74456"/>
                <def:ValueListRef ValueListOID="C360.VLM.VSLOC"/>
            </ItemDef>
            <ItemDef OID="C360.VS.IT.VSLAT" Name="VSLAT" DataType="text" Length="50"
                xmlns:def="http://www.cdisc.org/ns/def/v2.1">
                <Description>
                    <TranslatedText>Laterality</TranslatedText>
                </Description>
                <CodeListRef CodeListOID="CL./mdr/root/ct/sdtmct/codelists/C99073"/>
                <def:ValueListRef ValueListOID="C360.VLM.VSLAT"/>
            </ItemDef>
            <ItemDef OID="C360.VS.IT.VSBLFL" Name="VSBLFL" DataType="text" Length="50"
                xmlns:def="http://www.cdisc.org/ns/def/v2.1">
                <Description>
                    <TranslatedText>Baseline Flag</TranslatedText>
                </Description>
                <CodeListRef CodeListOID="CL./mdr/root/ct/sdtmct/codelists/C66742"/>
            </ItemDef>
            <ItemDef OID="C360.VS.IT.VSDRVFL" Name="VSDRVFL" DataType="text" Length="50"
                xmlns:def="http://www.cdisc.org/ns/def/v2.1">
                <Description>
                    <TranslatedText>Derived Flag</TranslatedText>
                </Description>
                <CodeListRef CodeListOID="CL./mdr/root/ct/sdtmct/codelists/C66742"/>
            </ItemDef>
            <ItemDef OID="C360.VS.IT.VISITNUM" Name="VISITNUM" DataType="integer" Length="50"
                xmlns:def="http://www.cdisc.org/ns/def/v2.1">
                <Description>
                    <TranslatedText>Visit Number</TranslatedText>
                </Description>
            </ItemDef>
            <ItemDef OID="C360.VS.IT.VISIT" Name="VISIT" DataType="text" Length="50"
                xmlns:def="http://www.cdisc.org/ns/def/v2.1">
                <Description>
                    <TranslatedText>Visit Name</TranslatedText>
                </Description>
            </ItemDef>
            <ItemDef OID="C360.VS.IT.VISITDY" Name="VISITDY" DataType="integer" Length="50"
                xmlns:def="http://www.cdisc.org/ns/def/v2.1">
                <Description>
                    <TranslatedText>Planned Study Day of Visit</TranslatedText>
                </Description>
            </ItemDef>
            <ItemDef OID="C360.VS.IT.VSDTC" Name="VSDTC" DataType="datetime" Length="50"
                xmlns:def="http://www.cdisc.org/ns/def/v2.1">
                <Description>
                    <TranslatedText>Date/Time of Measurements</TranslatedText>
                </Description>
                <def:ValueListRef ValueListOID="C360.VLM.VSDTC"/>
            </ItemDef>
            <ItemDef OID="C360.VS.IT.VSDY" Name="VSDY" DataType="integer" Length="50"
                xmlns:def="http://www.cdisc.org/ns/def/v2.1">
                <Description>
                    <TranslatedText>Study Day of Vital Signs</TranslatedText>
                </Description>
            </ItemDef>
            <ItemDef OID="C360.VS.IT.VSTPT" Name="VSTPT" DataType="text" Length="50"
                xmlns:def="http://www.cdisc.org/ns/def/v2.1">
                <Description>
                    <TranslatedText>Planned Time Point Name</TranslatedText>
                </Description>
            </ItemDef>
            <ItemDef OID="C360.VS.IT.VSTPTNUM" Name="VSTPTNUM" DataType="integer" Length="50"
                xmlns:def="http://www.cdisc.org/ns/def/v2.1">
                <Description>
                    <TranslatedText>Planned Time Point Number</TranslatedText>
                </Description>
            </ItemDef>
            <ItemDef OID="C360.VS.IT.VSELTM" Name="VSELTM" DataType="datetime" Length="50"
                xmlns:def="http://www.cdisc.org/ns/def/v2.1">
                <Description>
                    <TranslatedText>Planned Elapsed Time from Time Point Ref</TranslatedText>
                </Description>
            </ItemDef>
            <ItemDef OID="C360.VS.IT.VSTPTREF" Name="VSTPTREF" DataType="text" Length="50"
                xmlns:def="http://www.cdisc.org/ns/def/v2.1">
                <Description>
                    <TranslatedText>Time Point Reference</TranslatedText>
                </Description>
            </ItemDef>
            <ItemDef OID="C360.VS.IT.VSRFTDTC" Name="VSRFTDTC" DataType="datetime" Length="50"
                xmlns:def="http://www.cdisc.org/ns/def/v2.1">
                <Description>
                    <TranslatedText>Date/Time of Reference Time Point</TranslatedText>
                </Description>
            </ItemDef>
            <CodeList OID="CL.DM.DOMAIN" Name="DOMAIN_C360" DataType="text">
                <EnumeratedItem CodedValue="DM"/>
            </CodeList>
            <CodeList OID="C360.CL.ISO 8601" Name="ISO 8601" DataType="text">
                <ExternalCodeList Dictionary="ISO 8601" Version="Current - as of 2020-11-11"
                    href="C360.CL.ISO 860"/>
            </CodeList>
            <CodeList OID="CL./mdr/root/ct/sdtmct/codelists/C66742" Name="NY" DataType="text">
                <EnumeratedItem CodedValue="N"/>
                <EnumeratedItem CodedValue="NA"/>
                <EnumeratedItem CodedValue="U"/>
                <EnumeratedItem CodedValue="Y"/>
            </CodeList>
            <CodeList OID="CL./mdr/root/ct/sdtmct/codelists/C66781" Name="AGEU" DataType="text">
                <EnumeratedItem CodedValue="DAYS"/>
                <EnumeratedItem CodedValue="HOURS"/>
                <EnumeratedItem CodedValue="MONTHS"/>
                <EnumeratedItem CodedValue="WEEKS"/>
                <EnumeratedItem CodedValue="YEARS"/>
            </CodeList>
            <CodeList OID="CL./mdr/root/ct/sdtmct/codelists/C66731" Name="SEX" DataType="text">
                <EnumeratedItem CodedValue="F"/>
                <EnumeratedItem CodedValue="M"/>
                <EnumeratedItem CodedValue="U"/>
                <EnumeratedItem CodedValue="UNDIFFERENTIATED"/>
            </CodeList>
            <CodeList OID="CL./mdr/root/ct/sdtmct/codelists/C74457" Name="RACE" DataType="text">
                <EnumeratedItem CodedValue="AMERICAN INDIAN OR ALASKA NATIVE"/>
                <EnumeratedItem CodedValue="ASIAN"/>
                <EnumeratedItem CodedValue="BLACK OR AFRICAN AMERICAN"/>
                <EnumeratedItem CodedValue="NATIVE HAWAIIAN OR OTHER PACIFIC ISLANDER"/>
                <EnumeratedItem CodedValue="NOT REPORTED"/>
                <EnumeratedItem CodedValue="UNKNOWN"/>
                <EnumeratedItem CodedValue="WHITE"/>
            </CodeList>
            <CodeList OID="CL./mdr/root/ct/sdtmct/codelists/C66790" Name="ETHNIC" DataType="text">
                <EnumeratedItem CodedValue="HISPANIC OR LATINO"/>
                <EnumeratedItem CodedValue="NOT HISPANIC OR LATINO"/>
                <EnumeratedItem CodedValue="NOT REPORTED"/>
                <EnumeratedItem CodedValue="UNKNOWN"/>
            </CodeList>
            <CodeList OID="C360.CL.ISO 3166-1 Alpha-3" Name="ISO 3166-1 Alpha-3" DataType="text">
                <ExternalCodeList Dictionary="ISO 3166-1 Alpha-3"
                    Version="Current - as of 2020-11-11" href="C360.CL.ISO 3166-1 Alpha-"/>
            </CodeList>
            <CodeList OID="CL.EC.DOMAIN" Name="DOMAIN_C360" DataType="text">
                <EnumeratedItem CodedValue="EC"/>
            </CodeList>
            <CodeList OID="CL./mdr/root/ct/sdtmct/codelists/C71620" Name="UNIT" DataType="text">
                <EnumeratedItem CodedValue="%"/>
                <EnumeratedItem CodedValue="% INHIBITION"/>
                <EnumeratedItem CodedValue="%(v/v)"/>
                <EnumeratedItem CodedValue="%(w/v)"/>
                <EnumeratedItem CodedValue="%(w/w)"/>
                <EnumeratedItem CodedValue="%/min"/>
                <EnumeratedItem CodedValue="%/s"/>
                <EnumeratedItem CodedValue="/100 HPFs"/>
                <EnumeratedItem CodedValue="/100 WBC"/>
                <EnumeratedItem CodedValue="/10^3"/>
                <EnumeratedItem CodedValue="/10^4"/>
                <EnumeratedItem CodedValue="/10^5"/>
                <EnumeratedItem CodedValue="/200 HPFs"/>
                <EnumeratedItem CodedValue="/2000 RBC"/>
                <EnumeratedItem CodedValue="/2500 WBC"/>
                <EnumeratedItem CodedValue="/4.0 mL"/>
                <EnumeratedItem CodedValue="/40 HPFs"/>
                <EnumeratedItem CodedValue="/500 WBC"/>
                <EnumeratedItem CodedValue="/5x10^4 WBC"/>
                <EnumeratedItem CodedValue="/7.5 mL"/>
                <EnumeratedItem CodedValue="/HPF"/>
                <EnumeratedItem CodedValue="/LPF"/>
                <EnumeratedItem CodedValue="/LSQN"/>
                <EnumeratedItem CodedValue="/VF"/>
                <EnumeratedItem CodedValue="/cmH2O"/>
                <EnumeratedItem CodedValue="/day"/>
                <EnumeratedItem CodedValue="/h"/>
                <EnumeratedItem CodedValue="/kg"/>
                <EnumeratedItem CodedValue="/min"/>
                <EnumeratedItem CodedValue="/mm"/>
                <EnumeratedItem CodedValue="/mm2"/>
                <EnumeratedItem CodedValue="/month"/>
                <EnumeratedItem CodedValue="/ms"/>
                <EnumeratedItem CodedValue="/sec"/>
                <EnumeratedItem CodedValue="/wk"/>
                <EnumeratedItem CodedValue="1/(s*kPa)"/>
                <EnumeratedItem CodedValue="100 IU/mL"/>
                <EnumeratedItem CodedValue="10^10/L"/>
                <EnumeratedItem CodedValue="10^11/L"/>
                <EnumeratedItem CodedValue="10^12 IU/L"/>
                <EnumeratedItem CodedValue="10^12/L"/>
                <EnumeratedItem CodedValue="10^3 CFU"/>
                <EnumeratedItem CodedValue="10^3 CFU/g"/>
                <EnumeratedItem CodedValue="10^3 CFU/mL"/>
                <EnumeratedItem CodedValue="10^3 DNA copies/mL"/>
                <EnumeratedItem CodedValue="10^3 RNA copies/mL"/>
                <EnumeratedItem CodedValue="10^3 copies/mL"/>
                <EnumeratedItem CodedValue="10^3 organisms"/>
                <EnumeratedItem CodedValue="10^3 organisms/g"/>
                <EnumeratedItem CodedValue="10^3 organisms/mL"/>
                <EnumeratedItem CodedValue="10^3/L"/>
                <EnumeratedItem CodedValue="10^3/hpf"/>
                <EnumeratedItem CodedValue="10^4 CFU"/>
                <EnumeratedItem CodedValue="10^4 CFU/mL"/>
                <EnumeratedItem CodedValue="10^4/L"/>
                <EnumeratedItem CodedValue="10^4/hpf"/>
                <EnumeratedItem CodedValue="10^5/L"/>
                <EnumeratedItem CodedValue="10^5/hpf"/>
                <EnumeratedItem CodedValue="10^6 CFU"/>
                <EnumeratedItem CodedValue="10^6 CFU/g"/>
                <EnumeratedItem CodedValue="10^6 CFU/mL"/>
                <EnumeratedItem CodedValue="10^6 DNA copies/mL"/>
                <EnumeratedItem CodedValue="10^6 IU"/>
                <EnumeratedItem CodedValue="10^6 IU/mL"/>
                <EnumeratedItem CodedValue="10^6 RNA copies/mL"/>
                <EnumeratedItem CodedValue="10^6 U"/>
                <EnumeratedItem CodedValue="10^6 copies/mL"/>
                <EnumeratedItem CodedValue="10^6 organisms"/>
                <EnumeratedItem CodedValue="10^6 organisms/g"/>
                <EnumeratedItem CodedValue="10^6 organisms/mL"/>
                <EnumeratedItem CodedValue="10^6 organisms/mg"/>
                <EnumeratedItem CodedValue="10^6/Ejaculate U"/>
                <EnumeratedItem CodedValue="10^6/L"/>
                <EnumeratedItem CodedValue="10^6/g"/>
                <EnumeratedItem CodedValue="10^6/hpf"/>
                <EnumeratedItem CodedValue="10^7 CFU"/>
                <EnumeratedItem CodedValue="10^7 CFU/mL"/>
                <EnumeratedItem CodedValue="10^7 PFU"/>
                <EnumeratedItem CodedValue="10^7/L"/>
                <EnumeratedItem CodedValue="10^8 PFU"/>
                <EnumeratedItem CodedValue="10^8/L"/>
                <EnumeratedItem CodedValue="10^9 CFU"/>
                <EnumeratedItem CodedValue="10^9 CFU/g"/>
                <EnumeratedItem CodedValue="10^9 CFU/mL"/>
                <EnumeratedItem CodedValue="10^9 organisms"/>
                <EnumeratedItem CodedValue="10^9 organisms/g"/>
                <EnumeratedItem CodedValue="10^9 organisms/mL"/>
                <EnumeratedItem CodedValue="10^9 organisms/mg"/>
                <EnumeratedItem CodedValue="10^9/L"/>
                <EnumeratedItem CodedValue="10^9/dose"/>
                <EnumeratedItem CodedValue="10^9/g"/>
                <EnumeratedItem CodedValue="AFU"/>
                <EnumeratedItem CodedValue="AMPULE"/>
                <EnumeratedItem CodedValue="APL U"/>
                <EnumeratedItem CodedValue="APL U/mL"/>
                <EnumeratedItem CodedValue="APPLICATION"/>
                <EnumeratedItem CodedValue="APS U"/>
                <EnumeratedItem CodedValue="AU/mL"/>
                <EnumeratedItem CodedValue="Absorbance U"/>
                <EnumeratedItem CodedValue="Absorbance U/mL"/>
                <EnumeratedItem CodedValue="Absorbance U/min"/>
                <EnumeratedItem CodedValue="AgU/mL"/>
                <EnumeratedItem CodedValue="Anson U"/>
                <EnumeratedItem CodedValue="Antibody Unit"/>
                <EnumeratedItem CodedValue="Arbitrary U"/>
                <EnumeratedItem CodedValue="BAG"/>
                <EnumeratedItem CodedValue="BAR"/>
                <EnumeratedItem CodedValue="BAU"/>
                <EnumeratedItem CodedValue="BAU/mL"/>
                <EnumeratedItem CodedValue="BE/mL"/>
                <EnumeratedItem CodedValue="BEAM BREAKS"/>
                <EnumeratedItem CodedValue="BISCUIT"/>
                <EnumeratedItem CodedValue="BLOCKS"/>
                <EnumeratedItem CodedValue="BOLUS"/>
                <EnumeratedItem CodedValue="BOTTLE"/>
                <EnumeratedItem CodedValue="BOWL"/>
                <EnumeratedItem CodedValue="BOX"/>
                <EnumeratedItem CodedValue="BP"/>
                <EnumeratedItem CodedValue="BU"/>
                <EnumeratedItem CodedValue="BU/mL"/>
                <EnumeratedItem CodedValue="Bq"/>
                <EnumeratedItem CodedValue="Bq/L"/>
                <EnumeratedItem CodedValue="Bq/g"/>
                <EnumeratedItem CodedValue="Bq/kg"/>
                <EnumeratedItem CodedValue="Bq/mL"/>
                <EnumeratedItem CodedValue="Bq/mg"/>
                <EnumeratedItem CodedValue="Bq/uL"/>
                <EnumeratedItem CodedValue="Bq/ug"/>
                <EnumeratedItem CodedValue="C"/>
                <EnumeratedItem CodedValue="CAN"/>
                <EnumeratedItem CodedValue="CAPFUL"/>
                <EnumeratedItem CodedValue="CAPLET"/>
                <EnumeratedItem CodedValue="CAPSULE"/>
                <EnumeratedItem CodedValue="CARTRIDGE"/>
                <EnumeratedItem CodedValue="CCID 50/dose"/>
                <EnumeratedItem CodedValue="CCID 50/mL"/>
                <EnumeratedItem CodedValue="CFU/g"/>
                <EnumeratedItem CodedValue="CFU/mL"/>
                <EnumeratedItem CodedValue="CIGAR"/>
                <EnumeratedItem CodedValue="CIGARETTE"/>
                <EnumeratedItem CodedValue="COAT"/>
                <EnumeratedItem CodedValue="CONTAINER"/>
                <EnumeratedItem CodedValue="CUP"/>
                <EnumeratedItem CodedValue="CYLINDER"/>
                <EnumeratedItem CodedValue="Ci"/>
                <EnumeratedItem CodedValue="Ci/L"/>
                <EnumeratedItem CodedValue="Ci/g"/>
                <EnumeratedItem CodedValue="Ci/kg"/>
                <EnumeratedItem CodedValue="Ci/mL"/>
                <EnumeratedItem CodedValue="Ci/mg"/>
                <EnumeratedItem CodedValue="Ci/uL"/>
                <EnumeratedItem CodedValue="Ci/ug"/>
                <EnumeratedItem CodedValue="Coulomb"/>
                <EnumeratedItem CodedValue="DAYS"/>
                <EnumeratedItem CodedValue="DAgU"/>
                <EnumeratedItem CodedValue="DAgU/mL"/>
                <EnumeratedItem CodedValue="DDU"/>
                <EnumeratedItem CodedValue="DIOPTER"/>
                <EnumeratedItem CodedValue="DIP"/>
                <EnumeratedItem CodedValue="DISK"/>
                <EnumeratedItem CodedValue="DNA copies/mL"/>
                <EnumeratedItem CodedValue="DNA copies/ug"/>
                <EnumeratedItem CodedValue="DPM"/>
                <EnumeratedItem CodedValue="DRINK"/>
                <EnumeratedItem CodedValue="DROP"/>
                <EnumeratedItem CodedValue="DRUM"/>
                <EnumeratedItem CodedValue="ECL unit"/>
                <EnumeratedItem CodedValue="EIA unit"/>
                <EnumeratedItem CodedValue="EID 50/dose"/>
                <EnumeratedItem CodedValue="EID 50/mL"/>
                <EnumeratedItem CodedValue="ELISA unit"/>
                <EnumeratedItem CodedValue="ELISA unit/dose"/>
                <EnumeratedItem CodedValue="ELISA unit/mL"/>
                <EnumeratedItem CodedValue="EU"/>
                <EnumeratedItem CodedValue="EVENTS"/>
                <EnumeratedItem CodedValue="Ejaculate U"/>
                <EnumeratedItem CodedValue="Enzyme U"/>
                <EnumeratedItem CodedValue="Enzyme U/L"/>
                <EnumeratedItem CodedValue="Enzyme U/g Hb"/>
                <EnumeratedItem CodedValue="Enzyme U/m2"/>
                <EnumeratedItem CodedValue="F"/>
                <EnumeratedItem CodedValue="FEU"/>
                <EnumeratedItem CodedValue="FFU"/>
                <EnumeratedItem CodedValue="FINGERTIP UNIT"/>
                <EnumeratedItem CodedValue="FIU"/>
                <EnumeratedItem CodedValue="Farad"/>
                <EnumeratedItem CodedValue="Frames/s"/>
                <EnumeratedItem CodedValue="GBq"/>
                <EnumeratedItem CodedValue="GBq/g"/>
                <EnumeratedItem CodedValue="GBq/mg"/>
                <EnumeratedItem CodedValue="GBq/ug"/>
                <EnumeratedItem CodedValue="GLOBULE"/>
                <EnumeratedItem CodedValue="GPL U"/>
                <EnumeratedItem CodedValue="GPL U/mL"/>
                <EnumeratedItem CodedValue="GPS U"/>
                <EnumeratedItem CodedValue="Gauss"/>
                <EnumeratedItem CodedValue="Gravitational Unit"/>
                <EnumeratedItem CodedValue="Gy"/>
                <EnumeratedItem CodedValue="Gy/h"/>
                <EnumeratedItem CodedValue="Gy/min"/>
                <EnumeratedItem CodedValue="HEP"/>
                <EnumeratedItem CodedValue="HOMEOPATHIC DILUTION"/>
                <EnumeratedItem CodedValue="HOURS"/>
                <EnumeratedItem CodedValue="Henry"/>
                <EnumeratedItem CodedValue="Hounsfield Unit"/>
                <EnumeratedItem CodedValue="Hz"/>
                <EnumeratedItem CodedValue="Hz/s"/>
                <EnumeratedItem CodedValue="IMPLANT"/>
                <EnumeratedItem CodedValue="INHALATION"/>
                <EnumeratedItem CodedValue="IU"/>
                <EnumeratedItem CodedValue="IU/L"/>
                <EnumeratedItem CodedValue="IU/dL"/>
                <EnumeratedItem CodedValue="IU/day"/>
                <EnumeratedItem CodedValue="IU/g"/>
                <EnumeratedItem CodedValue="IU/g Hb"/>
                <EnumeratedItem CodedValue="IU/kg"/>
                <EnumeratedItem CodedValue="IU/kg/h"/>
                <EnumeratedItem CodedValue="IU/mL"/>
                <EnumeratedItem CodedValue="IU/mg"/>
                <EnumeratedItem CodedValue="IU/mmol"/>
                <EnumeratedItem CodedValue="JAR"/>
                <EnumeratedItem CodedValue="JDF Unit"/>
                <EnumeratedItem CodedValue="Joule"/>
                <EnumeratedItem CodedValue="K"/>
                <EnumeratedItem CodedValue="KALLIKREIN INHIBITOR UNIT"/>
                <EnumeratedItem CodedValue="KIT"/>
                <EnumeratedItem CodedValue="L"/>
                <EnumeratedItem CodedValue="L/L"/>
                <EnumeratedItem CodedValue="L/day"/>
                <EnumeratedItem CodedValue="L/h"/>
                <EnumeratedItem CodedValue="L/h/m2"/>
                <EnumeratedItem CodedValue="L/kg"/>
                <EnumeratedItem CodedValue="L/min"/>
                <EnumeratedItem CodedValue="L/min/m2"/>
                <EnumeratedItem CodedValue="L/s"/>
                <EnumeratedItem CodedValue="L/s/kPa"/>
                <EnumeratedItem CodedValue="LB"/>
                <EnumeratedItem CodedValue="LENS"/>
                <EnumeratedItem CodedValue="LOZENGE"/>
                <EnumeratedItem CodedValue="Linear ft*LB"/>
                <EnumeratedItem CodedValue="Log10 ELISA unit"/>
                <EnumeratedItem CodedValue="Log10 ELISA unit/dose"/>
                <EnumeratedItem CodedValue="MAC50"/>
                <EnumeratedItem CodedValue="MASK"/>
                <EnumeratedItem CodedValue="MBq"/>
                <EnumeratedItem CodedValue="MBq/uL"/>
                <EnumeratedItem CodedValue="MESF"/>
                <EnumeratedItem CodedValue="MET"/>
                <EnumeratedItem CodedValue="MET*h"/>
                <EnumeratedItem CodedValue="MET*min"/>
                <EnumeratedItem CodedValue="MHz"/>
                <EnumeratedItem CodedValue="MONTHS"/>
                <EnumeratedItem CodedValue="MPL U"/>
                <EnumeratedItem CodedValue="MPL U/mL"/>
                <EnumeratedItem CodedValue="MPS U"/>
                <EnumeratedItem CodedValue="MdFI"/>
                <EnumeratedItem CodedValue="Mile"/>
                <EnumeratedItem CodedValue="MnFI"/>
                <EnumeratedItem CodedValue="NEBULE"/>
                <EnumeratedItem CodedValue="NEEDLE GAUGE"/>
                <EnumeratedItem CodedValue="NFIU"/>
                <EnumeratedItem CodedValue="Newton"/>
                <EnumeratedItem CodedValue="OD Unit"/>
                <EnumeratedItem CodedValue="OI50"/>
                <EnumeratedItem CodedValue="P"/>
                <EnumeratedItem CodedValue="PA"/>
                <EnumeratedItem CodedValue="PACK"/>
                <EnumeratedItem CodedValue="PACKAGE"/>
                <EnumeratedItem CodedValue="PACKET"/>
                <EnumeratedItem CodedValue="PATCH"/>
                <EnumeratedItem CodedValue="PELLET"/>
                <EnumeratedItem CodedValue="PFU"/>
                <EnumeratedItem CodedValue="PFU/animal"/>
                <EnumeratedItem CodedValue="PFU/dose"/>
                <EnumeratedItem CodedValue="PFU/mL"/>
                <EnumeratedItem CodedValue="PHERESIS UNIT"/>
                <EnumeratedItem CodedValue="PIPE"/>
                <EnumeratedItem CodedValue="PIXEL"/>
                <EnumeratedItem CodedValue="PIXELS/cm"/>
                <EnumeratedItem CodedValue="PIXELS/in"/>
                <EnumeratedItem CodedValue="PLUG"/>
                <EnumeratedItem CodedValue="PNU/mL"/>
                <EnumeratedItem CodedValue="POINT"/>
                <EnumeratedItem CodedValue="POUCH"/>
                <EnumeratedItem CodedValue="PRESSOR UNITS"/>
                <EnumeratedItem CodedValue="PUFF"/>
                <EnumeratedItem CodedValue="Pa"/>
                <EnumeratedItem CodedValue="Pack Year"/>
                <EnumeratedItem CodedValue="QUANTITY SUFFICIENT"/>
                <EnumeratedItem CodedValue="RATIO"/>
                <EnumeratedItem CodedValue="RFU"/>
                <EnumeratedItem CodedValue="RING"/>
                <EnumeratedItem CodedValue="RNA copies/mL"/>
                <EnumeratedItem CodedValue="Rad"/>
                <EnumeratedItem CodedValue="Roentgen"/>
                <EnumeratedItem CodedValue="SACHET"/>
                <EnumeratedItem CodedValue="SBE/mL"/>
                <EnumeratedItem CodedValue="SCOOPFUL"/>
                <EnumeratedItem CodedValue="SFC/10^6 PBMC"/>
                <EnumeratedItem CodedValue="SPRAY"/>
                <EnumeratedItem CodedValue="SQU/mL"/>
                <EnumeratedItem CodedValue="STEPS"/>
                <EnumeratedItem CodedValue="STRIP"/>
                <EnumeratedItem CodedValue="SUPPOSITORY"/>
                <EnumeratedItem CodedValue="SYRINGE"/>
                <EnumeratedItem CodedValue="Shock Wave"/>
                <EnumeratedItem CodedValue="Siemens"/>
                <EnumeratedItem CodedValue="Sv"/>
                <EnumeratedItem CodedValue="TABLET"/>
                <EnumeratedItem CodedValue="TAMPON"/>
                <EnumeratedItem CodedValue="TCID 50/dose"/>
                <EnumeratedItem CodedValue="TRACE"/>
                <EnumeratedItem CodedValue="TRANSDUCING UNIT"/>
                <EnumeratedItem CodedValue="TRANSDUCING UNIT/mL"/>
                <EnumeratedItem CodedValue="TROCHE"/>
                <EnumeratedItem CodedValue="TUBE"/>
                <EnumeratedItem CodedValue="Tbsp"/>
                <EnumeratedItem CodedValue="Tesla"/>
                <EnumeratedItem CodedValue="Torr"/>
                <EnumeratedItem CodedValue="U"/>
                <EnumeratedItem CodedValue="U.CARR"/>
                <EnumeratedItem CodedValue="U/10^12 RBC"/>
                <EnumeratedItem CodedValue="U/L"/>
                <EnumeratedItem CodedValue="U/animal"/>
                <EnumeratedItem CodedValue="U/cL"/>
                <EnumeratedItem CodedValue="U/dL"/>
                <EnumeratedItem CodedValue="U/g"/>
                <EnumeratedItem CodedValue="U/g Hb"/>
                <EnumeratedItem CodedValue="U/g/day"/>
                <EnumeratedItem CodedValue="U/g/h"/>
                <EnumeratedItem CodedValue="U/g/min"/>
                <EnumeratedItem CodedValue="U/kg"/>
                <EnumeratedItem CodedValue="U/kg/day"/>
                <EnumeratedItem CodedValue="U/kg/h"/>
                <EnumeratedItem CodedValue="U/kg/min"/>
                <EnumeratedItem CodedValue="U/m2"/>
                <EnumeratedItem CodedValue="U/m2/day"/>
                <EnumeratedItem CodedValue="U/m2/h"/>
                <EnumeratedItem CodedValue="U/m2/min"/>
                <EnumeratedItem CodedValue="U/mL"/>
                <EnumeratedItem CodedValue="U/mg"/>
                <EnumeratedItem CodedValue="U/mmol"/>
                <EnumeratedItem CodedValue="USP U"/>
                <EnumeratedItem CodedValue="V"/>
                <EnumeratedItem CodedValue="V/sec"/>
                <EnumeratedItem CodedValue="VIAL"/>
                <EnumeratedItem CodedValue="VIRTUAL PIXEL"/>
                <EnumeratedItem CodedValue="VOXEL"/>
                <EnumeratedItem CodedValue="WAFER"/>
                <EnumeratedItem CodedValue="WEEKS"/>
                <EnumeratedItem CodedValue="Watt"/>
                <EnumeratedItem CodedValue="Weber"/>
                <EnumeratedItem CodedValue="YEARS"/>
                <EnumeratedItem CodedValue="aMFI"/>
                <EnumeratedItem CodedValue="ag"/>
                <EnumeratedItem CodedValue="amol"/>
                <EnumeratedItem CodedValue="amp"/>
                <EnumeratedItem CodedValue="amu"/>
                <EnumeratedItem CodedValue="anti-Xa IU"/>
                <EnumeratedItem CodedValue="anti-Xa IU/mL"/>
                <EnumeratedItem CodedValue="atm"/>
                <EnumeratedItem CodedValue="beats/min"/>
                <EnumeratedItem CodedValue="bel"/>
                <EnumeratedItem CodedValue="breaths/min"/>
                <EnumeratedItem CodedValue="cGy"/>
                <EnumeratedItem CodedValue="cL"/>
                <EnumeratedItem CodedValue="cP"/>
                <EnumeratedItem CodedValue="cal"/>
                <EnumeratedItem CodedValue="cd"/>
                <EnumeratedItem CodedValue="cd*s/m2"/>
                <EnumeratedItem CodedValue="cd/m2"/>
                <EnumeratedItem CodedValue="cg"/>
                <EnumeratedItem CodedValue="cm"/>
                <EnumeratedItem CodedValue="cm H2O"/>
                <EnumeratedItem CodedValue="cm/min"/>
                <EnumeratedItem CodedValue="cm/s"/>
                <EnumeratedItem CodedValue="cm2"/>
                <EnumeratedItem CodedValue="cmH2O*s/mL"/>
                <EnumeratedItem CodedValue="cmH2O*s2/mL"/>
                <EnumeratedItem CodedValue="cmH2O/mL"/>
                <EnumeratedItem CodedValue="cmHg"/>
                <EnumeratedItem CodedValue="cmol"/>
                <EnumeratedItem CodedValue="cmol/L"/>
                <EnumeratedItem CodedValue="copies/mL"/>
                <EnumeratedItem CodedValue="copies/uL"/>
                <EnumeratedItem CodedValue="copies/ug"/>
                <EnumeratedItem CodedValue="cpm"/>
                <EnumeratedItem CodedValue="cs"/>
                <EnumeratedItem CodedValue="cup eq"/>
                <EnumeratedItem CodedValue="cy/cm"/>
                <EnumeratedItem CodedValue="cycle/min"/>
                <EnumeratedItem CodedValue="dB"/>
                <EnumeratedItem CodedValue="dL"/>
                <EnumeratedItem CodedValue="damol/L"/>
                <EnumeratedItem CodedValue="days/month"/>
                <EnumeratedItem CodedValue="days/wk"/>
                <EnumeratedItem CodedValue="deg"/>
                <EnumeratedItem CodedValue="deg/mm"/>
                <EnumeratedItem CodedValue="deg/s"/>
                <EnumeratedItem CodedValue="deg2"/>
                <EnumeratedItem CodedValue="dmol"/>
                <EnumeratedItem CodedValue="dpm/0.5 mL"/>
                <EnumeratedItem CodedValue="dpm/100mg"/>
                <EnumeratedItem CodedValue="dpm/mL"/>
                <EnumeratedItem CodedValue="dpm/mg"/>
                <EnumeratedItem CodedValue="dram"/>
                <EnumeratedItem CodedValue="dyn"/>
                <EnumeratedItem CodedValue="eq"/>
                <EnumeratedItem CodedValue="fL"/>
                <EnumeratedItem CodedValue="fg"/>
                <EnumeratedItem CodedValue="fmol"/>
                <EnumeratedItem CodedValue="fmol/L"/>
                <EnumeratedItem CodedValue="fmol/L/sec"/>
                <EnumeratedItem CodedValue="fmol/g"/>
                <EnumeratedItem CodedValue="foz_br"/>
                <EnumeratedItem CodedValue="foz_us"/>
                <EnumeratedItem CodedValue="fraction of 1"/>
                <EnumeratedItem CodedValue="ft"/>
                <EnumeratedItem CodedValue="ft2"/>
                <EnumeratedItem CodedValue="ft3"/>
                <EnumeratedItem CodedValue="g"/>
                <EnumeratedItem CodedValue="g/L"/>
                <EnumeratedItem CodedValue="g/U"/>
                <EnumeratedItem CodedValue="g/animal"/>
                <EnumeratedItem CodedValue="g/animal/day"/>
                <EnumeratedItem CodedValue="g/animal/wk"/>
                <EnumeratedItem CodedValue="g/cage"/>
                <EnumeratedItem CodedValue="g/cage/day"/>
                <EnumeratedItem CodedValue="g/cage/wk"/>
                <EnumeratedItem CodedValue="g/cm2"/>
                <EnumeratedItem CodedValue="g/dL"/>
                <EnumeratedItem CodedValue="g/day"/>
                <EnumeratedItem CodedValue="g/g"/>
                <EnumeratedItem CodedValue="g/g/day"/>
                <EnumeratedItem CodedValue="g/kg"/>
                <EnumeratedItem CodedValue="g/kg/day"/>
                <EnumeratedItem CodedValue="g/m2"/>
                <EnumeratedItem CodedValue="g/m2/day"/>
                <EnumeratedItem CodedValue="g/mol"/>
                <EnumeratedItem CodedValue="gMFI"/>
                <EnumeratedItem CodedValue="genEq"/>
                <EnumeratedItem CodedValue="genEq/mL"/>
                <EnumeratedItem CodedValue="gpELISA unit/mL"/>
                <EnumeratedItem CodedValue="grain"/>
                <EnumeratedItem CodedValue="gtt"/>
                <EnumeratedItem CodedValue="h*%"/>
                <EnumeratedItem CodedValue="h/wk"/>
                <EnumeratedItem CodedValue="hPa"/>
                <EnumeratedItem CodedValue="in"/>
                <EnumeratedItem CodedValue="in2"/>
                <EnumeratedItem CodedValue="kBq"/>
                <EnumeratedItem CodedValue="kBq/uL"/>
                <EnumeratedItem CodedValue="kDa"/>
                <EnumeratedItem CodedValue="kHz"/>
                <EnumeratedItem CodedValue="kIU"/>
                <EnumeratedItem CodedValue="kN/cm2"/>
                <EnumeratedItem CodedValue="kPa"/>
                <EnumeratedItem CodedValue="kPa/L/sec"/>
                <EnumeratedItem CodedValue="kUSP"/>
                <EnumeratedItem CodedValue="kV"/>
                <EnumeratedItem CodedValue="ka_u/dL"/>
                <EnumeratedItem CodedValue="kat"/>
                <EnumeratedItem CodedValue="kcal"/>
                <EnumeratedItem CodedValue="kcal/day"/>
                <EnumeratedItem CodedValue="keV"/>
                <EnumeratedItem CodedValue="kg"/>
                <EnumeratedItem CodedValue="kg/L"/>
                <EnumeratedItem CodedValue="kg/cm"/>
                <EnumeratedItem CodedValue="kg/cm2"/>
                <EnumeratedItem CodedValue="kg/m2"/>
                <EnumeratedItem CodedValue="kg/mol"/>
                <EnumeratedItem CodedValue="km"/>
                <EnumeratedItem CodedValue="km/h"/>
                <EnumeratedItem CodedValue="ks"/>
                <EnumeratedItem CodedValue="lm"/>
                <EnumeratedItem CodedValue="log EID 50/dose"/>
                <EnumeratedItem CodedValue="log10 CCID 50/dose"/>
                <EnumeratedItem CodedValue="log10 CFU/g"/>
                <EnumeratedItem CodedValue="log10 CFU/mL"/>
                <EnumeratedItem CodedValue="log10 IU/mL"/>
                <EnumeratedItem CodedValue="log10 PFU"/>
                <EnumeratedItem CodedValue="log10 PFU/mL"/>
                <EnumeratedItem CodedValue="log10 TCID 50/dose"/>
                <EnumeratedItem CodedValue="log10 TCID 50/mL"/>
                <EnumeratedItem CodedValue="log10 TCID 50/uL"/>
                <EnumeratedItem CodedValue="log10 copies/mL"/>
                <EnumeratedItem CodedValue="lx"/>
                <EnumeratedItem CodedValue="m"/>
                <EnumeratedItem CodedValue="m/sec"/>
                <EnumeratedItem CodedValue="m/sec2"/>
                <EnumeratedItem CodedValue="m2"/>
                <EnumeratedItem CodedValue="m3"/>
                <EnumeratedItem CodedValue="mAmp"/>
                <EnumeratedItem CodedValue="mAnson U/mL"/>
                <EnumeratedItem CodedValue="mCi"/>
                <EnumeratedItem CodedValue="mCi/L"/>
                <EnumeratedItem CodedValue="mCi/kg"/>
                <EnumeratedItem CodedValue="mEq"/>
                <EnumeratedItem CodedValue="mEq/L"/>
                <EnumeratedItem CodedValue="mEq/dL"/>
                <EnumeratedItem CodedValue="mEq/day"/>
                <EnumeratedItem CodedValue="mEq/g"/>
                <EnumeratedItem CodedValue="mEq/kg"/>
                <EnumeratedItem CodedValue="mEq/mL"/>
                <EnumeratedItem CodedValue="mEq/mmol"/>
                <EnumeratedItem CodedValue="mEq/uL"/>
                <EnumeratedItem CodedValue="mEq/ug"/>
                <EnumeratedItem CodedValue="mIU/L"/>
                <EnumeratedItem CodedValue="mJoule/cm2"/>
                <EnumeratedItem CodedValue="mL"/>
                <EnumeratedItem CodedValue="mL*cmH2O"/>
                <EnumeratedItem CodedValue="mL/(min*100mL)"/>
                <EnumeratedItem CodedValue="mL/100g/min"/>
                <EnumeratedItem CodedValue="mL/animal"/>
                <EnumeratedItem CodedValue="mL/animal/day"/>
                <EnumeratedItem CodedValue="mL/animal/wk"/>
                <EnumeratedItem CodedValue="mL/beat"/>
                <EnumeratedItem CodedValue="mL/breath"/>
                <EnumeratedItem CodedValue="mL/cage"/>
                <EnumeratedItem CodedValue="mL/cage/day"/>
                <EnumeratedItem CodedValue="mL/cage/wk"/>
                <EnumeratedItem CodedValue="mL/cm"/>
                <EnumeratedItem CodedValue="mL/cm H2O"/>
                <EnumeratedItem CodedValue="mL/cm3/min"/>
                <EnumeratedItem CodedValue="mL/dL"/>
                <EnumeratedItem CodedValue="mL/day"/>
                <EnumeratedItem CodedValue="mL/dose"/>
                <EnumeratedItem CodedValue="mL/g/day"/>
                <EnumeratedItem CodedValue="mL/g/h"/>
                <EnumeratedItem CodedValue="mL/g/min"/>
                <EnumeratedItem CodedValue="mL/h"/>
                <EnumeratedItem CodedValue="mL/kg"/>
                <EnumeratedItem CodedValue="mL/kg/day"/>
                <EnumeratedItem CodedValue="mL/kg/h"/>
                <EnumeratedItem CodedValue="mL/kg/min"/>
                <EnumeratedItem CodedValue="mL/m2"/>
                <EnumeratedItem CodedValue="mL/m2/day"/>
                <EnumeratedItem CodedValue="mL/m2/h"/>
                <EnumeratedItem CodedValue="mL/m2/min"/>
                <EnumeratedItem CodedValue="mL/min"/>
                <EnumeratedItem CodedValue="mL/min/1.73m2"/>
                <EnumeratedItem CodedValue="mL/min/mmHg"/>
                <EnumeratedItem CodedValue="mL/mmHg"/>
                <EnumeratedItem CodedValue="mL/mmHg/min/L"/>
                <EnumeratedItem CodedValue="mL/s"/>
                <EnumeratedItem CodedValue="mL/s/m2"/>
                <EnumeratedItem CodedValue="mL/sec/1.73m2"/>
                <EnumeratedItem CodedValue="mMU/mL"/>
                <EnumeratedItem CodedValue="mN"/>
                <EnumeratedItem CodedValue="mOsm"/>
                <EnumeratedItem CodedValue="mOsm/L"/>
                <EnumeratedItem CodedValue="mOsm/kg"/>
                <EnumeratedItem CodedValue="mPa"/>
                <EnumeratedItem CodedValue="mU"/>
                <EnumeratedItem CodedValue="mU/L"/>
                <EnumeratedItem CodedValue="mU/g"/>
                <EnumeratedItem CodedValue="mV"/>
                <EnumeratedItem CodedValue="mV*min"/>
                <EnumeratedItem CodedValue="mV/sec"/>
                <EnumeratedItem CodedValue="mV2/Hz"/>
                <EnumeratedItem CodedValue="mg"/>
                <EnumeratedItem CodedValue="mg/L"/>
                <EnumeratedItem CodedValue="mg/L FEU"/>
                <EnumeratedItem CodedValue="mg/animal"/>
                <EnumeratedItem CodedValue="mg/cm2"/>
                <EnumeratedItem CodedValue="mg/dL"/>
                <EnumeratedItem CodedValue="mg/day"/>
                <EnumeratedItem CodedValue="mg/dose"/>
                <EnumeratedItem CodedValue="mg/g/h"/>
                <EnumeratedItem CodedValue="mg/g/min"/>
                <EnumeratedItem CodedValue="mg/h"/>
                <EnumeratedItem CodedValue="mg/kg"/>
                <EnumeratedItem CodedValue="mg/kg/day"/>
                <EnumeratedItem CodedValue="mg/kg/dose"/>
                <EnumeratedItem CodedValue="mg/kg/h"/>
                <EnumeratedItem CodedValue="mg/kg/min"/>
                <EnumeratedItem CodedValue="mg/kg/week"/>
                <EnumeratedItem CodedValue="mg/m2"/>
                <EnumeratedItem CodedValue="mg/m2/day"/>
                <EnumeratedItem CodedValue="mg/m2/h"/>
                <EnumeratedItem CodedValue="mg/m2/min"/>
                <EnumeratedItem CodedValue="mg/mL/min"/>
                <EnumeratedItem CodedValue="mg/min"/>
                <EnumeratedItem CodedValue="mg/mol"/>
                <EnumeratedItem CodedValue="mg2/dL2"/>
                <EnumeratedItem CodedValue="mgEq"/>
                <EnumeratedItem CodedValue="min"/>
                <EnumeratedItem CodedValue="mkat"/>
                <EnumeratedItem CodedValue="mm"/>
                <EnumeratedItem CodedValue="mm/2h"/>
                <EnumeratedItem CodedValue="mm/h"/>
                <EnumeratedItem CodedValue="mm/min"/>
                <EnumeratedItem CodedValue="mm/sec"/>
                <EnumeratedItem CodedValue="mm2"/>
                <EnumeratedItem CodedValue="mm3/mm2/year"/>
                <EnumeratedItem CodedValue="mmAL"/>
                <EnumeratedItem CodedValue="mmHg"/>
                <EnumeratedItem CodedValue="mmHg*min/L"/>
                <EnumeratedItem CodedValue="mmHg/L/min"/>
                <EnumeratedItem CodedValue="mmHg/sec"/>
                <EnumeratedItem CodedValue="mmol"/>
                <EnumeratedItem CodedValue="mmol/L"/>
                <EnumeratedItem CodedValue="mmol/day"/>
                <EnumeratedItem CodedValue="mmol/g"/>
                <EnumeratedItem CodedValue="mmol/kg"/>
                <EnumeratedItem CodedValue="mmol/min/kPa"/>
                <EnumeratedItem CodedValue="mmol/min/kPa/L"/>
                <EnumeratedItem CodedValue="mmol/mol"/>
                <EnumeratedItem CodedValue="mmol/s"/>
                <EnumeratedItem CodedValue="mmol2/L2"/>
                <EnumeratedItem CodedValue="mol"/>
                <EnumeratedItem CodedValue="mol/L"/>
                <EnumeratedItem CodedValue="mol/day"/>
                <EnumeratedItem CodedValue="mol/g"/>
                <EnumeratedItem CodedValue="mol/mL"/>
                <EnumeratedItem CodedValue="mol/mg"/>
                <EnumeratedItem CodedValue="mol/mol"/>
                <EnumeratedItem CodedValue="mph"/>
                <EnumeratedItem CodedValue="ms/mmHg"/>
                <EnumeratedItem CodedValue="ms2"/>
                <EnumeratedItem CodedValue="msec"/>
                <EnumeratedItem CodedValue="nCi"/>
                <EnumeratedItem CodedValue="nL"/>
                <EnumeratedItem CodedValue="nU/cL"/>
                <EnumeratedItem CodedValue="ng"/>
                <EnumeratedItem CodedValue="ng/L"/>
                <EnumeratedItem CodedValue="ng/dL"/>
                <EnumeratedItem CodedValue="ng/day"/>
                <EnumeratedItem CodedValue="ngEq/L"/>
                <EnumeratedItem CodedValue="nkat"/>
                <EnumeratedItem CodedValue="nkat/L"/>
                <EnumeratedItem CodedValue="nm"/>
                <EnumeratedItem CodedValue="nmol"/>
                <EnumeratedItem CodedValue="nmol BCE/L"/>
                <EnumeratedItem CodedValue="nmol BCE/mmol"/>
                <EnumeratedItem CodedValue="nmol BCE/nmol"/>
                <EnumeratedItem CodedValue="nmol/L"/>
                <EnumeratedItem CodedValue="nmol/L/h"/>
                <EnumeratedItem CodedValue="nmol/L/min"/>
                <EnumeratedItem CodedValue="nmol/day"/>
                <EnumeratedItem CodedValue="nmol/g"/>
                <EnumeratedItem CodedValue="nmol/mL/min"/>
                <EnumeratedItem CodedValue="nmol/mol"/>
                <EnumeratedItem CodedValue="nsec"/>
                <EnumeratedItem CodedValue="ohm"/>
                <EnumeratedItem CodedValue="osm"/>
                <EnumeratedItem CodedValue="oz"/>
                <EnumeratedItem CodedValue="oz eq"/>
                <EnumeratedItem CodedValue="pL"/>
                <EnumeratedItem CodedValue="pg"/>
                <EnumeratedItem CodedValue="pg/L"/>
                <EnumeratedItem CodedValue="pg/dL"/>
                <EnumeratedItem CodedValue="pkat"/>
                <EnumeratedItem CodedValue="pkat/L"/>
                <EnumeratedItem CodedValue="pm"/>
                <EnumeratedItem CodedValue="pmol"/>
                <EnumeratedItem CodedValue="pmol/10^10 cells"/>
                <EnumeratedItem CodedValue="pmol/10^9 cells"/>
                <EnumeratedItem CodedValue="pmol/L"/>
                <EnumeratedItem CodedValue="pmol/L/h"/>
                <EnumeratedItem CodedValue="pmol/dL"/>
                <EnumeratedItem CodedValue="pmol/day"/>
                <EnumeratedItem CodedValue="pmol/g"/>
                <EnumeratedItem CodedValue="ppb"/>
                <EnumeratedItem CodedValue="ppm"/>
                <EnumeratedItem CodedValue="ppth"/>
                <EnumeratedItem CodedValue="pptr"/>
                <EnumeratedItem CodedValue="psec"/>
                <EnumeratedItem CodedValue="psi"/>
                <EnumeratedItem CodedValue="pt_br"/>
                <EnumeratedItem CodedValue="pt_us"/>
                <EnumeratedItem CodedValue="rpm"/>
                <EnumeratedItem CodedValue="s*kPa"/>
                <EnumeratedItem CodedValue="s/h"/>
                <EnumeratedItem CodedValue="s^-1(%O2)^-1"/>
                <EnumeratedItem CodedValue="scm"/>
                <EnumeratedItem CodedValue="sec"/>
                <EnumeratedItem CodedValue="steps/min"/>
                <EnumeratedItem CodedValue="titer"/>
                <EnumeratedItem CodedValue="tsp"/>
                <EnumeratedItem CodedValue="tsp eq"/>
                <EnumeratedItem CodedValue="tuberculin unit"/>
                <EnumeratedItem CodedValue="tuberculin unit/mL"/>
                <EnumeratedItem CodedValue="uCi"/>
                <EnumeratedItem CodedValue="uCi/L"/>
                <EnumeratedItem CodedValue="uCi/kg"/>
                <EnumeratedItem CodedValue="uEq"/>
                <EnumeratedItem CodedValue="uEq/L"/>
                <EnumeratedItem CodedValue="uIU/L"/>
                <EnumeratedItem CodedValue="uIU/dL"/>
                <EnumeratedItem CodedValue="uL"/>
                <EnumeratedItem CodedValue="uL/dose"/>
                <EnumeratedItem CodedValue="uL/kg/day"/>
                <EnumeratedItem CodedValue="uL/mL"/>
                <EnumeratedItem CodedValue="uOsM"/>
                <EnumeratedItem CodedValue="uSiemens"/>
                <EnumeratedItem CodedValue="uU/L"/>
                <EnumeratedItem CodedValue="uU/dL"/>
                <EnumeratedItem CodedValue="uV"/>
                <EnumeratedItem CodedValue="uV*sec"/>
                <EnumeratedItem CodedValue="uV2"/>
                <EnumeratedItem CodedValue="ug"/>
                <EnumeratedItem CodedValue="ug/L"/>
                <EnumeratedItem CodedValue="ug/L DDU"/>
                <EnumeratedItem CodedValue="ug/L FEU"/>
                <EnumeratedItem CodedValue="ug/L/h"/>
                <EnumeratedItem CodedValue="ug/animal"/>
                <EnumeratedItem CodedValue="ug/cm2"/>
                <EnumeratedItem CodedValue="ug/dL"/>
                <EnumeratedItem CodedValue="ug/day"/>
                <EnumeratedItem CodedValue="ug/dose"/>
                <EnumeratedItem CodedValue="ug/g/day"/>
                <EnumeratedItem CodedValue="ug/g/h"/>
                <EnumeratedItem CodedValue="ug/g/min"/>
                <EnumeratedItem CodedValue="ug/h"/>
                <EnumeratedItem CodedValue="ug/kg"/>
                <EnumeratedItem CodedValue="ug/kg/day"/>
                <EnumeratedItem CodedValue="ug/kg/h"/>
                <EnumeratedItem CodedValue="ug/kg/min"/>
                <EnumeratedItem CodedValue="ug/m2"/>
                <EnumeratedItem CodedValue="ug/m2/day"/>
                <EnumeratedItem CodedValue="ug/m2/h"/>
                <EnumeratedItem CodedValue="ug/m2/min"/>
                <EnumeratedItem CodedValue="ug/mL/h"/>
                <EnumeratedItem CodedValue="ug/min"/>
                <EnumeratedItem CodedValue="ugEq"/>
                <EnumeratedItem CodedValue="ugEq/L"/>
                <EnumeratedItem CodedValue="ukat"/>
                <EnumeratedItem CodedValue="ukat/10^12 RBC"/>
                <EnumeratedItem CodedValue="ukat/L"/>
                <EnumeratedItem CodedValue="um"/>
                <EnumeratedItem CodedValue="um/day"/>
                <EnumeratedItem CodedValue="um/s"/>
                <EnumeratedItem CodedValue="um2"/>
                <EnumeratedItem CodedValue="umol"/>
                <EnumeratedItem CodedValue="umol/L"/>
                <EnumeratedItem CodedValue="umol/L/h"/>
                <EnumeratedItem CodedValue="umol/L/min"/>
                <EnumeratedItem CodedValue="umol/L/sec"/>
                <EnumeratedItem CodedValue="umol/dL"/>
                <EnumeratedItem CodedValue="umol/day"/>
                <EnumeratedItem CodedValue="umol/h/mmol"/>
                <EnumeratedItem CodedValue="umol/kg/min"/>
                <EnumeratedItem CodedValue="umol/mg/min"/>
                <EnumeratedItem CodedValue="umol/min"/>
                <EnumeratedItem CodedValue="umol/mol"/>
                <EnumeratedItem CodedValue="usec"/>
                <EnumeratedItem CodedValue="v/v"/>
                <EnumeratedItem CodedValue="vg/dose"/>
                <EnumeratedItem CodedValue="vg/kg"/>
                <EnumeratedItem CodedValue="vg/mL"/>
                <EnumeratedItem CodedValue="vp/dose"/>
                <EnumeratedItem CodedValue="vp/mL"/>
                <EnumeratedItem CodedValue="yd"/>
            </CodeList>
            <CodeList OID="CL./mdr/root/ct/sdtmct/codelists/C66726" Name="FRM" DataType="text">
                <EnumeratedItem CodedValue="AEROSOL"/>
                <EnumeratedItem CodedValue="AEROSOL, FOAM"/>
                <EnumeratedItem CodedValue="AEROSOL, METERED"/>
                <EnumeratedItem CodedValue="AEROSOL, POWDER"/>
                <EnumeratedItem CodedValue="AEROSOL, SPRAY"/>
                <EnumeratedItem CodedValue="BAR, CHEWABLE"/>
                <EnumeratedItem CodedValue="BEAD"/>
                <EnumeratedItem CodedValue="BEAD, IMPLANT, EXTENDED RELEASE"/>
                <EnumeratedItem CodedValue="BLOCK"/>
                <EnumeratedItem CodedValue="CAPLET"/>
                <EnumeratedItem CodedValue="CAPSULE"/>
                <EnumeratedItem CodedValue="CAPSULE, COATED"/>
                <EnumeratedItem CodedValue="CAPSULE, COATED PELLETS"/>
                <EnumeratedItem CodedValue="CAPSULE, COATED, EXTENDED RELEASE"/>
                <EnumeratedItem CodedValue="CAPSULE, DELAYED RELEASE"/>
                <EnumeratedItem CodedValue="CAPSULE, DELAYED RELEASE PELLETS"/>
                <EnumeratedItem CodedValue="CAPSULE, EXTENDED RELEASE"/>
                <EnumeratedItem CodedValue="CAPSULE, FILM COATED, EXTENDED RELEASE"/>
                <EnumeratedItem CodedValue="CAPSULE, GELATIN COATED"/>
                <EnumeratedItem CodedValue="CAPSULE, HARD, EXTENDED RELEASE"/>
                <EnumeratedItem CodedValue="CAPSULE, IMMEDIATE RELEASE"/>
                <EnumeratedItem CodedValue="CAPSULE, LIQUID FILLED"/>
                <EnumeratedItem CodedValue="CAPSULE, SOFTGEL, EXTENDED RELEASE"/>
                <EnumeratedItem CodedValue="CEMENT"/>
                <EnumeratedItem CodedValue="CIGARETTE"/>
                <EnumeratedItem CodedValue="CLOTH"/>
                <EnumeratedItem CodedValue="CONCENTRATE"/>
                <EnumeratedItem CodedValue="CONE"/>
                <EnumeratedItem CodedValue="CORE, EXTENDED RELEASE"/>
                <EnumeratedItem CodedValue="CREAM"/>
                <EnumeratedItem CodedValue="CREAM, AUGMENTED"/>
                <EnumeratedItem CodedValue="CRYSTAL"/>
                <EnumeratedItem CodedValue="CULTURE"/>
                <EnumeratedItem CodedValue="DIAPHRAGM"/>
                <EnumeratedItem CodedValue="DISC"/>
                <EnumeratedItem CodedValue="DOUCHE"/>
                <EnumeratedItem CodedValue="DRESSING"/>
                <EnumeratedItem CodedValue="DRUG DELIVERY SYSTEM"/>
                <EnumeratedItem CodedValue="ELIXIR"/>
                <EnumeratedItem CodedValue="EMULSION"/>
                <EnumeratedItem CodedValue="ENEMA"/>
                <EnumeratedItem CodedValue="EXTRACT"/>
                <EnumeratedItem CodedValue="FIBER, EXTENDED RELEASE"/>
                <EnumeratedItem CodedValue="FILM"/>
                <EnumeratedItem CodedValue="FILM, EXTENDED RELEASE"/>
                <EnumeratedItem CodedValue="FILM, SOLUBLE"/>
                <EnumeratedItem CodedValue="FOR SOLUTION"/>
                <EnumeratedItem CodedValue="FOR SUSPENSION"/>
                <EnumeratedItem CodedValue="FOR SUSPENSION, EXTENDED RELEASE"/>
                <EnumeratedItem CodedValue="GAS"/>
                <EnumeratedItem CodedValue="GEL"/>
                <EnumeratedItem CodedValue="GEL, CHEWABLE"/>
                <EnumeratedItem CodedValue="GEL, DENTIFRICE"/>
                <EnumeratedItem CodedValue="GEL, METERED"/>
                <EnumeratedItem CodedValue="GENERATOR"/>
                <EnumeratedItem CodedValue="GLOBULE"/>
                <EnumeratedItem CodedValue="GRAFT"/>
                <EnumeratedItem CodedValue="GRANULE"/>
                <EnumeratedItem CodedValue="GRANULE, DELAYED RELEASE"/>
                <EnumeratedItem CodedValue="GRANULE, EFFERVESCENT"/>
                <EnumeratedItem CodedValue="GRANULE, FOR SOLUTION"/>
                <EnumeratedItem CodedValue="GRANULE, FOR SUSPENSION"/>
                <EnumeratedItem CodedValue="GRANULE, FOR SUSPENSION, EXTENDED RELEASE"/>
                <EnumeratedItem CodedValue="GUM"/>
                <EnumeratedItem CodedValue="GUM, CHEWING"/>
                <EnumeratedItem CodedValue="GUM, RESIN"/>
                <EnumeratedItem CodedValue="IMPLANT"/>
                <EnumeratedItem CodedValue="INHALANT"/>
                <EnumeratedItem CodedValue="INJECTABLE, LIPOSOMAL"/>
                <EnumeratedItem CodedValue="INJECTION"/>
                <EnumeratedItem CodedValue="INJECTION, EMULSION"/>
                <EnumeratedItem CodedValue="INJECTION, LIPID COMPLEX"/>
                <EnumeratedItem CodedValue="INJECTION, POWDER, FOR SOLUTION"/>
                <EnumeratedItem CodedValue="INJECTION, POWDER, FOR SUSPENSION"/>
                <EnumeratedItem CodedValue="INJECTION, POWDER, FOR SUSPENSION, EXTENDED RELEASE"/>
                <EnumeratedItem
                    CodedValue="INJECTION, POWDER, LYOPHILIZED, FOR LIPOSOMAL SUSPENSION"/>
                <EnumeratedItem CodedValue="INJECTION, POWDER, LYOPHILIZED, FOR SOLUTION"/>
                <EnumeratedItem CodedValue="INJECTION, POWDER, LYOPHILIZED, FOR SUSPENSION"/>
                <EnumeratedItem
                    CodedValue="INJECTION, POWDER, LYOPHILIZED, FOR SUSPENSION, EXTENDED RELEASE"/>
                <EnumeratedItem CodedValue="INJECTION, SOLUTION"/>
                <EnumeratedItem CodedValue="INJECTION, SOLUTION, CONCENTRATE"/>
                <EnumeratedItem CodedValue="INJECTION, SUSPENSION"/>
                <EnumeratedItem CodedValue="INJECTION, SUSPENSION, EXTENDED RELEASE"/>
                <EnumeratedItem CodedValue="INJECTION, SUSPENSION, LIPOSOMAL"/>
                <EnumeratedItem CodedValue="INJECTION, SUSPENSION, SONICATED"/>
                <EnumeratedItem CodedValue="INSERT"/>
                <EnumeratedItem CodedValue="INSERT, EXTENDED RELEASE"/>
                <EnumeratedItem CodedValue="INTRAUTERINE DEVICE"/>
                <EnumeratedItem CodedValue="IRRIGANT"/>
                <EnumeratedItem CodedValue="JELLY"/>
                <EnumeratedItem CodedValue="KIT"/>
                <EnumeratedItem CodedValue="LINER, DENTAL"/>
                <EnumeratedItem CodedValue="LINIMENT"/>
                <EnumeratedItem CodedValue="LIPSTICK"/>
                <EnumeratedItem CodedValue="LIQUID"/>
                <EnumeratedItem CodedValue="LIQUID, EXTENDED RELEASE"/>
                <EnumeratedItem CodedValue="LOTION"/>
                <EnumeratedItem CodedValue="LOTION, AUGMENTED"/>
                <EnumeratedItem CodedValue="LOTION/SHAMPOO"/>
                <EnumeratedItem CodedValue="LOZENGE"/>
                <EnumeratedItem CodedValue="MOUTHWASH"/>
                <EnumeratedItem CodedValue="NOT APPLICABLE"/>
                <EnumeratedItem CodedValue="OIL"/>
                <EnumeratedItem CodedValue="OINTMENT"/>
                <EnumeratedItem CodedValue="OINTMENT, AUGMENTED"/>
                <EnumeratedItem CodedValue="PACKING"/>
                <EnumeratedItem CodedValue="PASTE"/>
                <EnumeratedItem CodedValue="PASTE, DENTIFRICE"/>
                <EnumeratedItem CodedValue="PASTILLE"/>
                <EnumeratedItem CodedValue="PATCH"/>
                <EnumeratedItem CodedValue="PATCH, EXTENDED RELEASE"/>
                <EnumeratedItem CodedValue="PATCH, EXTENDED RELEASE, ELECTRICALLY CONTROLLED"/>
                <EnumeratedItem CodedValue="PELLET"/>
                <EnumeratedItem CodedValue="PELLET, IMPLANTABLE"/>
                <EnumeratedItem CodedValue="PELLETS, COATED, EXTENDED RELEASE"/>
                <EnumeratedItem CodedValue="PILL"/>
                <EnumeratedItem CodedValue="PLASTER"/>
                <EnumeratedItem CodedValue="POULTICE"/>
                <EnumeratedItem CodedValue="POWDER"/>
                <EnumeratedItem CodedValue="POWDER, DENTIFRICE"/>
                <EnumeratedItem CodedValue="POWDER, FOR SOLUTION"/>
                <EnumeratedItem CodedValue="POWDER, FOR SUSPENSION"/>
                <EnumeratedItem CodedValue="POWDER, METERED"/>
                <EnumeratedItem CodedValue="RING"/>
                <EnumeratedItem CodedValue="RINSE"/>
                <EnumeratedItem CodedValue="SALVE"/>
                <EnumeratedItem CodedValue="SHAMPOO"/>
                <EnumeratedItem CodedValue="SHAMPOO, SUSPENSION"/>
                <EnumeratedItem CodedValue="SOAP"/>
                <EnumeratedItem CodedValue="SOLID"/>
                <EnumeratedItem CodedValue="SOLUTION"/>
                <EnumeratedItem CodedValue="SOLUTION, CONCENTRATE"/>
                <EnumeratedItem CodedValue="SOLUTION, FOR SLUSH"/>
                <EnumeratedItem CodedValue="SOLUTION, GEL FORMING / DROPS"/>
                <EnumeratedItem CodedValue="SOLUTION, GEL FORMING, EXTENDED RELEASE"/>
                <EnumeratedItem CodedValue="SOLUTION/ DROPS"/>
                <EnumeratedItem CodedValue="SPONGE"/>
                <EnumeratedItem CodedValue="SPRAY"/>
                <EnumeratedItem CodedValue="SPRAY, METERED"/>
                <EnumeratedItem CodedValue="SPRAY, SUSPENSION"/>
                <EnumeratedItem CodedValue="STICK"/>
                <EnumeratedItem CodedValue="STRIP"/>
                <EnumeratedItem CodedValue="SUPPOSITORY"/>
                <EnumeratedItem CodedValue="SUPPOSITORY, EXTENDED RELEASE"/>
                <EnumeratedItem CodedValue="SUSPENSION"/>
                <EnumeratedItem CodedValue="SUSPENSION, EXTENDED RELEASE"/>
                <EnumeratedItem CodedValue="SUSPENSION/DROPS"/>
                <EnumeratedItem CodedValue="SUTURE"/>
                <EnumeratedItem CodedValue="SWAB"/>
                <EnumeratedItem CodedValue="SYRUP"/>
                <EnumeratedItem CodedValue="TABLET"/>
                <EnumeratedItem CodedValue="TABLET, CHEWABLE"/>
                <EnumeratedItem CodedValue="TABLET, COATED"/>
                <EnumeratedItem CodedValue="TABLET, COATED PARTICLES"/>
                <EnumeratedItem CodedValue="TABLET, DELAYED RELEASE"/>
                <EnumeratedItem CodedValue="TABLET, DELAYED RELEASE PARTICLES"/>
                <EnumeratedItem CodedValue="TABLET, EFFERVESCENT"/>
                <EnumeratedItem CodedValue="TABLET, EXTENDED RELEASE"/>
                <EnumeratedItem CodedValue="TABLET, FILM COATED"/>
                <EnumeratedItem CodedValue="TABLET, FILM COATED, EXTENDED RELEASE"/>
                <EnumeratedItem CodedValue="TABLET, FOR SOLUTION"/>
                <EnumeratedItem CodedValue="TABLET, FOR SUSPENSION"/>
                <EnumeratedItem CodedValue="TABLET, IMMEDIATE RELEASE"/>
                <EnumeratedItem CodedValue="TABLET, IMMEDIATE RELEASE, SOLID DISPERSION"/>
                <EnumeratedItem CodedValue="TABLET, MODIFIED RELEASE"/>
                <EnumeratedItem CodedValue="TABLET, MODIFIED RELEASE, LONG DURATION"/>
                <EnumeratedItem CodedValue="TABLET, MODIFIED RELEASE, SHORT DURATION"/>
                <EnumeratedItem CodedValue="TABLET, MULTILAYER"/>
                <EnumeratedItem CodedValue="TABLET, MULTILAYER, EXTENDED RELEASE"/>
                <EnumeratedItem CodedValue="TABLET, ORALLY DISINTEGRATING"/>
                <EnumeratedItem CodedValue="TABLET, ORALLY DISINTEGRATING, DELAYED RELEASE"/>
                <EnumeratedItem CodedValue="TABLET, SOLUBLE"/>
                <EnumeratedItem CodedValue="TABLET, SUGAR COATED"/>
                <EnumeratedItem CodedValue="TAMPON"/>
                <EnumeratedItem CodedValue="TAPE"/>
                <EnumeratedItem CodedValue="TINCTURE"/>
                <EnumeratedItem CodedValue="TROCHE"/>
                <EnumeratedItem CodedValue="UNASSIGNED"/>
                <EnumeratedItem CodedValue="UNKNOWN"/>
                <EnumeratedItem CodedValue="WAFER"/>
            </CodeList>
            <CodeList OID="CL./mdr/root/ct/sdtmct/codelists/C71113" Name="FREQ" DataType="text">
                <EnumeratedItem CodedValue="1 TIME PER WEEK"/>
                <EnumeratedItem CodedValue="10 DAYS PER MONTH"/>
                <EnumeratedItem CodedValue="2 TIMES PER WEEK"/>
                <EnumeratedItem CodedValue="2 TIMES PER YEAR"/>
