{
    "parent": "DM-sdtmig",
    "prodVers": "sdtmig-3-2",
    "DM_bcConcepts": [
        {
            "ordinal": 1,
            "bcID": "BCDMSubject(C70665)",
            "bcName": "Subject(C70665)",
            "bcLabel": "Subject (C70665)",
            "bcTopicVar": "DMSUBJID",
            "bcCond": "Subject (C70665)",
            "_links": {
                "sdtmig-topic": {
                    "href": "/mdr/sdtmig/3-2/datasets/DM/variables/SUBJID",
                    "title": "Subject Identifier for the Study",
                    "type": "SDTM Dataset Variable"
                }
            },
            "bcVarList": [
                {
                    "DEC": "DTHDTC",
                    "ClibRef": {
                        "self": {
                            "href": "/mdr/sdtmig/3-2/datasets/DM/variables/DTHDTC",
                            "title": "Date/Time of Death",
                            "type": "SDTM Dataset Variable"
                        }
                    },
                    "cdType": "ISO 8601"
                },
                {
                    "DEC": "ACTARMCD",
                    "ClibRef": {
                        "self": {
                            "href": "/mdr/sdtmig/3-2/datasets/DM/variables/ACTARMCD",
                            "title": "Actual Arm Code",
                            "type": "SDTM Dataset Variable"
                        }
                    },
                    "cdType": "text"
                },
                {
                    "DEC": "ETHNIC",
                    "ClibRef": {
                        "self": {
                            "href": "/mdr/sdtmig/3-2/datasets/DM/variables/ETHNIC",
                            "title": "Ethnicity",
                            "type": "SDTM Dataset Variable"
                        },
                        "codelist": [
                            {
                                "href": "/mdr/root/ct/sdtmct/codelists/C66790",
                                "title": "Version-agnostic anchor resource for codelist C66790",
                                "type": "Root Value Domain"
                            }
                        ]
                    },
                    "CDVal": {"value": "Ethnicity (C66790)"},
                    "origin": {
                        "MappingType": "Predecessor",
                        "Description": "Value copied from CDASH-DM.ETHNIC",
                        "SourceVar": "CDASH-DM.ETHNIC"
                    }
                },
                {
                    "DEC": "RACE",
                    "ClibRef": {
                        "self": {
                            "href": "/mdr/sdtmig/3-2/datasets/DM/variables/RACE",
                            "title": "Race",
                            "type": "SDTM Dataset Variable"
                        },
                        "codelist": [
                            {
                                "href": "/mdr/root/ct/sdtmct/codelists/C74457",
                                "title": "Version-agnostic anchor resource for codelist C74457",
                                "type": "Root Value Domain"
                            }
                        ]
                    },
                    "CDVal": {"value": "Race (C74457)"},
                    "origin": {
                        "MappingType": "Predecessor",
                        "Description": "Value copied from CDASH-DM.RACE",
                        "SourceVar": "CDASH-DM.RACE"
                    }
                },
                {
                    "DEC": "COUNTRY",
                    "ClibRef": {
                        "self": {
                            "href": "/mdr/sdtmig/3-2/datasets/DM/variables/COUNTRY",
                            "title": "Country",
                            "type": "SDTM Dataset Variable"
                        }
                    },
                    "CDVal": {"value": "ISO 3166"}
                },
                {
                    "DEC": "INVNAM",
                    "ClibRef": {
                        "self": {
                            "href": "/mdr/sdtmig/3-2/datasets/DM/variables/INVNAM",
                            "title": "Investigator Name",
                            "type": "SDTM Dataset Variable"
                        }
                    },
                    "cdType": "text",
                    "origin": {
                        "MappingType": "Predecessor",
                        "Description": "Value copied from SDTM-DM.INVNAM",
                        "SourceVar": "SDTM-DM.INVNAM"
                    }
                },
                {
                    "DEC": "DMDY",
                    "ClibRef": {
                        "self": {
                            "href": "/mdr/sdtmig/3-2/datasets/DM/variables/DMDY",
                            "title": "Study Day of Collection",
                            "type": "SDTM Dataset Variable"
                        }
                    },
                    "cdType": "integer",
                    "origin": {
                        "MappingType": "Computation",
                        "Methods": [
                            {
                                "Description": "DMDAT -  RFSTDTC + 1 if DMDAT is on or after RFSTDTC\nDMDAT -  RFSTDTC if DMDAT precedes RFSTDTC",
                                "InputVariables": [
                                    {
                                        "Standard": "SDTM",
                                        "Domain": "DM",
                                        "VarName": "DMDAT"
                                    },
                                    {
                                        "Standard": "SDTM",
                                        "Domain": "DM",
                                        "VarName": "RFSTDTC"
                                    }
                                ],
                                "Preferred": "none"
                            }
                        ]
                    }
                },
                {
                    "DEC": "SUBJID",
                    "ClibRef": {
                        "self": {
                            "href": "/mdr/sdtmig/3-2/datasets/DM/variables/USUBJID",
                            "title": "Unique Subject Identifier",
                            "type": "SDTM Dataset Variable"
                        }
                    },
                    "cdType": "text",
                    "origin": {
                        "MappingType": "Predecessor",
                        "Description": "Value copied from CDASH-DM.SUBJID",
                        "SourceVar": "CDASH-DM.SUBJID"
                    }
                },
                {
                    "DEC": "RFSTDTC",
                    "ClibRef": {
                        "self": {
                            "href": "/mdr/sdtmig/3-2/datasets/DM/variables/RFSTDTC",
                            "title": "Subject Reference Start Date/Time",
                            "type": "SDTM Dataset Variable"
                        }
                    },
                    "cdType": "ISO 8601",
                    "origin": {
                        "MappingType": "Computation",
                        "Methods": [
                            {
                                "Description": "Convert Start Date/Time  of Treatment  to ISO8601 date format.",
                                "InputVariables": [
                                    {
                                        "Standard": "CDASH",
                                        "Domain": "EC",
                                        "VarName": "ECSTDAT"
                                    },
                                    {
                                        "Standard": "CDASH",
                                        "Domain": "EC",
                                        "VarName": "ECSTTIM"
                                    }
                                ],
                                "Preferred": "Yes"
                            },
                            {
                                "Description": "Convert Informed Consent Date/Time  to ISO8601 date format.",
                                "InputVariables": [
                                    {
                                        "Standard": "CDASH",
                                        "Domain": "DM",
                                        "VarName": "RFICDAT"
                                    },
                                    {
                                        "Standard": "CDASH",
                                        "Domain": "DM",
                                        "VarName": "RFICTIM"
                                    }
                                ],
                                "Preferred": "No"
                            }
                        ]
                    }
                },
                {
                    "DEC": "ARMCD",
                    "ClibRef": {
                        "self": {
                            "href": "/mdr/sdtmig/3-2/datasets/DM/variables/ARMCD",
                            "title": "Planned Arm Code",
                            "type": "SDTM Dataset Variable"
                        }
                    },
                    "cdType": "text"
                },
                {
                    "DEC": "STUDYID",
                    "ClibRef": {},
                    "cdType": "text",
                    "origin": {
                        "MappingType": "Assigned",
                        "Description": "Set to CDISC360-2.",
                        "MappedValue": "CDISC360-2"
                    }
                },
                {
                    "DEC": "ACTARM",
                    "ClibRef": {
                        "self": {
                            "href": "/mdr/sdtmig/3-2/datasets/DM/variables/ACTARMCD",
                            "title": "Actual Arm Code",
                            "type": "SDTM Dataset Variable"
                        }
                    },
                    "cdType": "text"
                },
                {
                    "DEC": "AGE",
                    "ClibRef": {
                        "self": {
                            "href": "/mdr/sdtmig/3-2/datasets/DM/variables/AGE",
                            "title": "Age",
                            "type": "SDTM Dataset Variable"
                        }
                    },
                    "cdType": "float",
                    "origin": {
                        "MappingType": "Predecessor",
                        "Description": "Value copied from CDASH-DM.AGE",
                        "SourceVar": "CDASH-DM.AGE"
                    }
                },
                {
                    "DEC": "INVID",
                    "ClibRef": {
                        "self": {
                            "href": "/mdr/sdtmig/3-2/datasets/DM/variables/INVID",
                            "title": "Investigator Identifier",
                            "type": "SDTM Dataset Variable"
                        }
                    },
                    "cdType": "text",
                    "origin": {
                        "MappingType": "Predecessor",
                        "Description": "Value copied from SDTM-DM.INVID",
                        "SourceVar": "SDTM-DM.INVID"
                    }
                },
                {
                    "DEC": "RFXSTDTC",
                    "ClibRef": {
                        "self": {
                            "href": "/mdr/sdtmig/3-2/datasets/DM/variables/RFXSTDTC",
                            "title": "Date/Time of First Study Treatment",
                            "type": "SDTM Dataset Variable"
                        }
                    },
                    "cdType": "ISO 8601",
                    "origin": {
                        "MappingType": "Computation",
                        "Methods": [
                            {
                                "Description": "Convert Start Date/Time  of Treatment to ISO8601 date format.",
                                "InputVariables": [
                                    {
                                        "Standard": "CDASH",
                                        "Domain": "EC",
                                        "VarName": "ECSTDAT"
                                    },
                                    {
                                        "Standard": "CDASH",
                                        "Domain": "EC",
                                        "VarName": "ECSTTIM"
                                    }
                                ],
                                "Preferred": "none"
                            }
                        ]
                    }
                },
                {
                    "DEC": "SEX",
                    "ClibRef": {
                        "self": {
                            "href": "/mdr/sdtmig/3-2/datasets/DM/variables/SEX",
                            "title": "Sex",
                            "type": "SDTM Dataset Variable"
                        },
                        "codelist": [
                            {
                                "href": "/mdr/root/ct/sdtmct/codelists/C66731",
                                "title": "Version-agnostic anchor resource for codelist C66731",
                                "type": "Root Value Domain"
                            }
                        ]
                    },
                    "CDVal": {"value": "Sex (C66731)"},
                    "origin": {
                        "MappingType": "Predecessor",
                        "Description": "Value copied from CDASH-DM.SEX",
                        "SourceVar": "CDASH-DM.SEX"
                    }
                },
                {
                    "DEC": "RFICDTC",
                    "ClibRef": {
                        "self": {
                            "href": "/mdr/sdtmig/3-2/datasets/DM/variables/RFICDTC",
                            "title": "Date/Time of Informed Consent",
                            "type": "SDTM Dataset Variable"
                        }
                    },
                    "cdType": "ISO 8601",
                    "origin": {
                        "MappingType": "Computation",
                        "Methods": [
                            {
                                "Description": "Convert Informed Consent Date/Time  ISO8601 date format.",
                                "InputVariables": [
                                    {
                                        "Standard": "CDASH",
                                        "Domain": "DM",
                                        "VarName": "RFICDAT"
                                    },
                                    {
                                        "Standard": "CDASH",
                                        "Domain": "DM",
                                        "VarName": "RFICTIM"
                                    }
                                ],
                                "Preferred": "none"
                            }
                        ]
                    }
                },
                {
                    "DEC": "SITEID",
                    "ClibRef": {
                        "self": {
                            "href": "/mdr/sdtmig/3-2/datasets/DM/variables/SITEID",
                            "title": "Study Site Identifier",
                            "type": "SDTM Dataset Variable"
                        }
                    },
                    "cdType": "text",
                    "origin": {
                        "MappingType": "Predecessor",
                        "Description": "Value copied from CDASH-DM.SITEID",
                        "SourceVar": "CDASH-DM.SITEID"
                    }
                },
                {
                    "DEC": "BRTHDTC",
                    "ClibRef": {
                        "self": {
                            "href": "/mdr/sdtmig/3-2/datasets/DM/variables/BRTHDTC",
                            "title": "Date/Time of Birth",
                            "type": "SDTM Dataset Variable"
                        }
                    },
                    "cdType": "ISO 8601",
                    "origin": {
                        "MappingType": "Computation",
                        "Methods": [
                            {
                                "Description": "Convert Birth Date (BRTHDAT) to ISO8601 date format.",
                                "InputVariables": [
                                    {
                                        "Standard": "CDASH",
                                        "Domain": "DM",
                                        "VarName": "BRTHDAT"
                                    },
                                    {
                                        "Standard": "CDASH",
                                        "Domain": "DM",
                                        "VarName": "BRTHTIM"
                                    }
                                ],
                                "Preferred": "none"
                            }
                        ]
                    }
                },
                {
                    "DEC": "RFXENDTC",
                    "ClibRef": {
                        "self": {
                            "href": "/mdr/sdtmig/3-2/datasets/DM/variables/RFXENDTC",
                            "title": "Date/Time of Last Study Treatment",
                            "type": "SDTM Dataset Variable"
                        }
                    },
                    "cdType": "ISO 8601",
                    "origin": {
                        "MappingType": "Computation",
                        "Methods": [
                            {
                                "Description": "Convert End Date/Time of Treatment to ISO8601 date format.",
                                "InputVariables": [
                                    {
                                        "Standard": "CDASH",
                                        "Domain": "EC",
                                        "VarName": "ECENDAT"
                                    },
                                    {
                                        "Standard": "CDASH",
                                        "Domain": "EC",
                                        "VarName": "ECENTIM"
                                    }
                                ],
                                "Preferred": "none"
                            }
                        ]
                    }
                },
                {
                    "DEC": "AGEU",
                    "ClibRef": {
                        "self": {
                            "href": "/mdr/sdtmig/3-2/datasets/DM/variables/AGEU",
                            "title": "Age Units",
                            "type": "SDTM Dataset Variable"
                        },
                        "codelist": [
                            {
                                "href": "/mdr/root/ct/sdtmct/codelists/C66781",
                                "title": "Version-agnostic anchor resource for codelist C66781",
                                "type": "Root Value Domain"
                            }
                        ]
                    },
                    "CDVal": {"value": "Age Units (C66781)"},
                    "origin": {
                        "MappingType": "Predecessor",
                        "Description": "Value copied from CDASH-DM.AGEU",
                        "SourceVar": "CDASH-DM.AGEU"
                    }
                },
                {
                    "DEC": "USUBJID",
                    "ClibRef": {
                        "self": {
                            "href": "/mdr/sdtmig/3-2/datasets/DM/variables/USUBJID",
                            "title": "Unique Subject Identifier",
                            "type": "SDTM Dataset Variable"
                        }
                    },
                    "cdType": "text",
                    "origin": {
                        "MappingType": "Computation",
                        "Methods": [
                            {
                                "Description": "Concatenation of STUDYID, SITEID  and SUBJID",
                                "InputVariables": [
                                    {
                                        "Standard": "SDTM",
                                        "Domain": "DM",
                                        "VarName": "USUBJID"
                                    }
                                ],
                                "Preferred": "none"
                            }
                        ]
                    }
                },
                {
                    "DEC": "DMDTC",
                    "ClibRef": {
                        "self": {
                            "href": "/mdr/sdtmig/3-2/datasets/DM/variables/DMDTC",
                            "title": "Date/Time of Collection",
                            "type": "SDTM Dataset Variable"
                        }
                    },
                    "cdType": "ISO 8601",
                    "origin": {
                        "MappingType": "Computation",
                        "Methods": [
                            {
                                "Description": "Convert Date of Demographics Collection (DMDAT) to ISO8601 date format.",
                                "InputVariables": [
                                    {
                                        "Standard": "CDASH",
                                        "Domain": "DM",
                                        "VarName": "DMDAT"
                                    }
                                ],
                                "Preferred": "none"
                            }
                        ]
                    }
                },
                {
                    "DEC": "RFENDTC",
                    "ClibRef": {
                        "self": {
                            "href": "/mdr/sdtmig/3-2/datasets/DM/variables/RFENDTC",
                            "title": "Subject Reference End Date/Time",
                            "type": "SDTM Dataset Variable"
                        }
                    },
                    "cdType": "ISO 8601",
                    "origin": {
                        "MappingType": "Computation",
                        "Methods": [
                            {
                                "Description": "Convert End Date/Time of Treatment  to ISO8601 date format.",
                                "InputVariables": [
                                    {
                                        "Standard": "CDASH",
                                        "Domain": "EC",
                                        "VarName": "ECENDAT"
                                    },
                                    {
                                        "Standard": "CDASH",
                                        "Domain": "EC",
                                        "VarName": "ECENTIM"
                                    }
                                ],
                                "Preferred": "Yes"
                            },
                            {
                                "Description": "Convert Disposition Event Start Date/Time to ISO8601 date format.",
                                "InputVariables": [
                                    {
                                        "Standard": "CDASH",
                                        "Domain": "DS",
                                        "VarName": "DSSTDAT"
                                    },
                                    {
                                        "Standard": "CDASH",
                                        "Domain": "DS",
                                        "VarName": "DSSTTIM"
                                    }
                                ],
                                "Preferred": "No"
                            }
                        ]
                    }
                },
                {
                    "DEC": "RFPENDTC",
                    "ClibRef": {
                        "self": {
                            "href": "/mdr/sdtmig/3-2/datasets/DM/variables/RFPENDTC",
                            "title": "Date/Time of End of Participation",
                            "type": "SDTM Dataset Variable"
                        }
                    },
                    "cdType": "ISO 8601",
                    "origin": {
                        "MappingType": "Computation",
                        "Methods": [
                            {
                                "Description": "Or date of last Assessment/Procedure/Event",
                                "InputVariables": [
                                    {
                                        "Standard": "SDTM",
                                        "Domain": "SV",
                                        "VarName": "SVENDTC"
                                    }
                                ],
                                "Preferred": "none"
                            }
                        ]
                    }
                },
                {
                    "DEC": "DTHFL",
                    "ClibRef": {
                        "self": {
                            "href": "/mdr/sdtmig/3-2/datasets/DM/variables/DTHFL",
                            "title": "Subject Death Flag",
                            "type": "SDTM Dataset Variable"
                        },
                        "codelist": [
                            {
                                "href": "/mdr/root/ct/sdtmct/codelists/C66742",
                                "title": "Version-agnostic anchor resource for codelist C66742",
                                "type": "Root Value Domain"
                            }
                        ]
                    },
                    "CDVal": {"value": "NY (C66742)"},
                    "origin": {
                        "MappingType": "Computation",
                        "Methods": [
                            {
                                "Description": "Value=\"Y\" When DSDECOD=\"Death\" ",
                                "InputVariables": [
                                    {
                                        "Standard": "CDASH",
                                        "Domain": "DS",
                                        "VarName": "DSDECOD"
                                    }
                                ],
                                "Preferred": "none"
                            }
                        ]
                    }
                },
                {
                    "DEC": "ARM",
                    "ClibRef": {
                        "self": {
                            "href": "/mdr/sdtmig/3-2/datasets/DM/variables/ARMCD",
                            "title": "Planned Arm Code",
                            "type": "SDTM Dataset Variable"
                        }
                    },
                    "cdType": "text"
                }
            ]
        }
    ]
}