{"parent": "VS-sdtmig", "prodVers": "sdtmig-3-2", "VS_bcConcepts": [{"ordinal": 1, "bcID": "BCVSSystolicBloodPressure", "bcName": "SystolicBloodPressure", "bcLabel": "Systolic Blood Pressure", "bcTopicVar": "VSTESTCD", "bcCond": "VSTESTCD EQ SYSBP", "_links": {"sdtmig-topic": {"href": "/mdr/sdtmig/3-2/datasets/VS/variables/VSTESTCD", "title": "Vital Signs Test Short Name", "type": "SDTM Dataset Variable"}}, "bcVarList": [{"DEC": "VSPOS", "ClibRef": {"self": {"href": "/mdr/sdtmig/3-2/datasets/VS/variables/VSPOS", "title": "Vital Signs Position of Subject", "type": "SDTM Dataset Variable"}, "codelist": [{"href": "/mdr/root/ct/sdtmct/codelists/C71148", "title": "Version-agnostic anchor resource for codelist C71148", "type": "Root Value Domain"}]}, "CDVal": {"subset": "SITTING;SUPINE;STANDING"}, "origin": {"MappingType": "Predecessor", "Description": "Value copied from CDASH-VS.SYSBP_VSPOS", "SourceVar": "CDASH-VS.SYSBP_VSPOS"}}, {"DEC": "VSDT", "ClibRef": {"self": {"href": "/mdr/sdtmig/3-2/datasets/VS/variables/VSDTC", "title": "Date/Time of Measurements", "type": "SDTM Dataset Variable"}}, "cdType": "ISO 8601"}, {"DEC": "VSSTRESN", "ClibRef": {"self": {"href": "/mdr/sdtmig/3-2/datasets/VS/variables/VSSTRESN", "title": "Numeric Result/Finding in Standard Units", "type": "SDTM Dataset Variable"}}, "cdType": "float", "origin": {"MappingType": "Computation", "Methods": [{"Description": "Convert WEIGHT_VSORRES from WEIGHT_VSORRESU units to standard units", "InputVariables": [{"Standard": "CDASH", "Domain": "VS", "VarName": "WEIGHT_VSORRES", "Value": null}], "Preferred": "Yes"}]}}, {"DEC": "VSTEST", "ClibRef": {"self": {"href": "/mdr/sdtmig/3-2/datasets/VS/variables/VSTESTCD", "title": "Vital Signs Test Short Name", "type": "SDTM Dataset Variable"}, "codelist": [{"href": "/mdr/root/ct/sdtmct/codelists/C66741", "title": "Version-agnostic anchor resource for codelist C66741", "type": "Root Value Domain"}]}, "CDVal": {"value": "Systolic Blood Pressure"}}, {"DEC": "VSSTRESU", "ClibRef": {"self": {"href": "/mdr/sdtmig/3-2/datasets/VS/variables/VSSTRESU", "title": "Standard Units", "type": "SDTM Dataset Variable"}, "codelist": [{"href": "/mdr/root/ct/sdtmct/codelists/C66770", "title": "Version-agnostic anchor resource for codelist C66770", "type": "Root Value Domain"}]}, "CDVal": {"value": "mmHG"}}, {"DEC": "VSTESTCD", "ClibRef": {"self": {"href": "/mdr/sdtmig/3-2/datasets/VS/variables/VSTESTCD", "title": "Vital Signs Test Short Name", "type": "SDTM Dataset Variable"}, "codelist": [{"href": "/mdr/root/ct/sdtmct/codelists/C66741", "title": "Version-agnostic anchor resource for codelist C66741", "type": "Root Value Domain"}]}, "CDVal": {"value": "SYSBP"}}, {"DEC": "VSLOC", "ClibRef": {"self": {"href": "/mdr/sdtmig/3-2/datasets/VS/variables/VSLOC", "title": "Location of Vital Signs Measurement", "type": "SDTM Dataset Variable"}, "codelist": [{"href": "/mdr/root/ct/sdtmct/codelists/C74456", "title": "Version-agnostic anchor resource for codelist C74456", "type": "Root Value Domain"}]}, "CDVal": {"subset": "LEG;CALF;FINGER"}}, {"DEC": "VSLAT", "ClibRef": {"self": {"href": "/mdr/sdtmig/3-2/datasets/VS/variables/VSLAT", "title": "Laterality", "type": "SDTM Dataset Variable"}, "codelist": [{"href": "/mdr/root/ct/sdtmct/codelists/C99073", "title": "Version-agnostic anchor resource for codelist C99073", "type": "Root Value Domain"}]}, "CDVal": {"subset": "LEFT;RIGHT"}}]}, {"ordinal": 2, "bcID": "BCVSBodyMassIndex", "bcName": "BodyMassIndex", "bcLabel": "Body Mass Index", "bcTopicVar": "VSTESTCD", "bcCond": "VSTESTCD EQ BMI", "_links": {"sdtmig-topic": {"href": "/mdr/sdtmig/3-2/datasets/VS/variables/VSTESTCD", "title": "Vital Signs Test Short Name", "type": "SDTM Dataset Variable"}}, "bcVarList": [{"DEC": "VSDT", "ClibRef": {"self": {"href": "/mdr/sdtmig/3-2/datasets/VS/variables/VSDTC", "title": "Date/Time of Measurements", "type": "SDTM Dataset Variable"}}, "cdType": "ISO 8601"}, {"DEC": "VSTEST", "ClibRef": {"self": {"href": "/mdr/sdtmig/3-2/datasets/VS/variables/VSTESTCD", "title": "Vital Signs Test Short Name", "type": "SDTM Dataset Variable"}, "codelist": [{"href": "/mdr/root/ct/sdtmct/codelists/C66741", "title": "Version-agnostic anchor resource for codelist C66741", "type": "Root Value Domain"}]}, "CDVal": {"value": "Body Mass Index"}}, {"DEC": "VSSTRESU", "ClibRef": {"self": {"href": "/mdr/sdtmig/3-2/datasets/VS/variables/VSSTRESU", "title": "Standard Units", "type": "SDTM Dataset Variable"}, "codelist": [{"href": "/mdr/root/ct/sdtmct/codelists/C66770", "title": "Version-agnostic anchor resource for codelist C66770", "type": "Root Value Domain"}]}, "CDVal": {"value": "kg/m2"}}, {"DEC": "VSTESTCD", "ClibRef": {"self": {"href": "/mdr/sdtmig/3-2/datasets/VS/variables/VSTESTCD", "title": "Vital Signs Test Short Name", "type": "SDTM Dataset Variable"}, "codelist": [{"href": "/mdr/root/ct/sdtmct/codelists/C66741", "title": "Version-agnostic anchor resource for codelist C66741", "type": "Root Value Domain"}]}, "CDVal": {"value": "BMI"}}, {"DEC": "VSSTRESN", "ClibRef": {"self": {"href": "/mdr/sdtmig/3-2/datasets/VS/variables/VSSTRESN", "title": "Numeric Result/Finding in Standard Units", "type": "SDTM Dataset Variable"}}, "cdType": "float", "origin": {"MappingType": "Computation", "Methods": [{"Description": "Convert WEIGHT_VSORRES from WEIGHT_VSORRESU units to standard units", "InputVariables": [{"Standard": "CDASH", "Domain": "VS", "VarName": "WEIGHT_VSORRES", "Value": null}], "Preferred": "Yes"}]}}]}, {"ordinal": 3, "bcID": "BCVSWeight", "bcName": "Weight", "bcLabel": "Weight", "bcTopicVar": "VSTESTCD", "bcCond": "VSTESTCD EQ WEIGHT", "_links": {"sdtmig-topic": {"href": "/mdr/sdtmig/3-2/datasets/VS/variables/VSTESTCD", "title": "Vital Signs Test Short Name", "type": "SDTM Dataset Variable"}}, "bcVarList": [{"DEC": "VSTEST", "ClibRef": {"self": {"href": "/mdr/sdtmig/3-2/datasets/VS/variables/VSTESTCD", "title": "Vital Signs Test Short Name", "type": "SDTM Dataset Variable"}, "codelist": [{"href": "/mdr/root/ct/sdtmct/codelists/C66741", "title": "Version-agnostic anchor resource for codelist C66741", "type": "Root Value Domain"}]}, "CDVal": {"value": "Weight"}}, {"DEC": "VSSTRESU", "ClibRef": {"self": {"href": "/mdr/sdtmig/3-2/datasets/VS/variables/VSSTRESU", "title": "Standard Units", "type": "SDTM Dataset Variable"}, "codelist": [{"href": "/mdr/root/ct/sdtmct/codelists/C66770", "title": "Version-agnostic anchor resource for codelist C66770", "type": "Root Value Domain"}]}, "CDVal": {"subset": "kg; lb"}}, {"DEC": "VSSTRESN", "ClibRef": {"self": {"href": "/mdr/sdtmig/3-2/datasets/VS/variables/VSSTRESN", "title": "Numeric Result/Finding in Standard Units", "type": "SDTM Dataset Variable"}}, "cdType": "float", "origin": {"MappingType": "Computation", "Methods": [{"Description": "Convert WEIGHT_VSORRES from WEIGHT_VSORRESU units to standard units", "InputVariables": [{"Standard": "CDASH", "Domain": "VS", "VarName": "WEIGHT_VSORRES", "Value": null}], "Preferred": "Yes"}]}}, {"DEC": "VSDT", "ClibRef": {"self": {"href": "/mdr/sdtmig/3-2/datasets/VS/variables/VSDTC", "title": "Date/Time of Measurements", "type": "SDTM Dataset Variable"}}, "cdType": "ISO 8601"}, {"DEC": "VSTESTCD", "ClibRef": {"self": {"href": "/mdr/sdtmig/3-2/datasets/VS/variables/VSTESTCD", "title": "Vital Signs Test Short Name", "type": "SDTM Dataset Variable"}, "codelist": [{"href": "/mdr/root/ct/sdtmct/codelists/C66741", "title": "Version-agnostic anchor resource for codelist C66741", "type": "Root Value Domain"}]}, "CDVal": {"value": "WEIGHT"}}, {"DEC": "VSPOS", "ClibRef": {"self": {"href": "/mdr/sdtmig/3-2/datasets/VS/variables/VSPOS", "title": "Vital Signs Position of Subject", "type": "SDTM Dataset Variable"}, "codelist": [{"href": "/mdr/root/ct/sdtmct/codelists/C71148", "title": "Version-agnostic anchor resource for codelist C71148", "type": "Root Value Domain"}]}, "CDVal": {"value": "STANDING"}, "origin": {"MappingType": "Predecessor", "Description": "Value copied from CDASH-VS.SYSBP_VSPOS", "SourceVar": "CDASH-VS.SYSBP_VSPOS"}}]}, {"ordinal": 4, "bcID": "BCVSHeight", "bcName": "Height", "bcLabel": "Height", "bcTopicVar": "VSTESTCD", "bcCond": "VSTESTCD EQ HEIGHT", "_links": {"sdtmig-topic": {"href": "/mdr/sdtmig/3-2/datasets/VS/variables/VSTESTCD", "title": "Vital Signs Test Short Name", "type": "SDTM Dataset Variable"}}, "bcVarList": [{"DEC": "VSPOS", "ClibRef": {"self": {"href": "/mdr/sdtmig/3-2/datasets/VS/variables/VSPOS", "title": "Vital Signs Position of Subject", "type": "SDTM Dataset Variable"}, "codelist": [{"href": "/mdr/root/ct/sdtmct/codelists/C71148", "title": "Version-agnostic anchor resource for codelist C71148", "type": "Root Value Domain"}]}, "CDVal": {"value": "STANDING"}, "origin": {"MappingType": "Predecessor", "Description": "Value copied from CDASH-VS.SYSBP_VSPOS", "SourceVar": "CDASH-VS.SYSBP_VSPOS"}}, {"DEC": "VSSTRESU", "ClibRef": {"self": {"href": "/mdr/sdtmig/3-2/datasets/VS/variables/VSSTRESU", "title": "Standard Units", "type": "SDTM Dataset Variable"}, "codelist": [{"href": "/mdr/root/ct/sdtmct/codelists/C66770", "title": "Version-agnostic anchor resource for codelist C66770", "type": "Root Value Domain"}]}, "CDVal": {"subset": "cm;m;in"}}, {"DEC": "VSDT", "ClibRef": {"self": {"href": "/mdr/sdtmig/3-2/datasets/VS/variables/VSDTC", "title": "Date/Time of Measurements", "type": "SDTM Dataset Variable"}}, "cdType": "ISO 8601"}, {"DEC": "VSSTRESN", "ClibRef": {"self": {"href": "/mdr/sdtmig/3-2/datasets/VS/variables/VSSTRESN", "title": "Numeric Result/Finding in Standard Units", "type": "SDTM Dataset Variable"}}, "cdType": "float", "origin": {"MappingType": "Computation", "Methods": [{"Description": "Convert WEIGHT_VSORRES from WEIGHT_VSORRESU units to standard units", "InputVariables": [{"Standard": "CDASH", "Domain": "VS", "VarName": "WEIGHT_VSORRES", "Value": null}], "Preferred": "Yes"}]}}, {"DEC": "VSTEST", "ClibRef": {"self": {"href": "/mdr/sdtmig/3-2/datasets/VS/variables/VSTESTCD", "title": "Vital Signs Test Short Name", "type": "SDTM Dataset Variable"}, "codelist": [{"href": "/mdr/root/ct/sdtmct/codelists/C66741", "title": "Version-agnostic anchor resource for codelist C66741", "type": "Root Value Domain"}]}, "CDVal": {"value": "Height"}}, {"DEC": "VSTESTCD", "ClibRef": {"self": {"href": "/mdr/sdtmig/3-2/datasets/VS/variables/VSTESTCD", "title": "Vital Signs Test Short Name", "type": "SDTM Dataset Variable"}, "codelist": [{"href": "/mdr/root/ct/sdtmct/codelists/C66741", "title": "Version-agnostic anchor resource for codelist C66741", "type": "Root Value Domain"}]}, "CDVal": {"value": "HEIGHT"}}]}, {"ordinal": 5, "bcID": "BCVSDiastolicBloodPressure", "bcName": "DiastolicBloodPressure", "bcLabel": "Diastolic Blood Pressure", "bcTopicVar": "VSTESTCD", "bcCond": "VSTESTCD EQ DIABP", "_links": {"sdtmig-topic": {"href": "/mdr/sdtmig/3-2/datasets/VS/variables/VSTESTCD", "title": "Vital Signs Test Short Name", "type": "SDTM Dataset Variable"}}, "bcVarList": [{"DEC": "VSPOS", "ClibRef": {"self": {"href": "/mdr/sdtmig/3-2/datasets/VS/variables/VSPOS", "title": "Vital Signs Position of Subject", "type": "SDTM Dataset Variable"}, "codelist": [{"href": "/mdr/root/ct/sdtmct/codelists/C71148", "title": "Version-agnostic anchor resource for codelist C71148", "type": "Root Value Domain"}]}, "CDVal": {"subset": "SITTING;SUPINE;STANDING"}, "origin": {"MappingType": "Predecessor", "Description": "Value copied from CDASH-VS.SYSBP_VSPOS", "SourceVar": "CDASH-VS.SYSBP_VSPOS"}}, {"DEC": "VSLAT", "ClibRef": {"self": {"href": "/mdr/sdtmig/3-2/datasets/VS/variables/VSLAT", "title": "Laterality", "type": "SDTM Dataset Variable"}, "codelist": [{"href": "/mdr/root/ct/sdtmct/codelists/C99073", "title": "Version-agnostic anchor resource for codelist C99073", "type": "Root Value Domain"}]}, "CDVal": {"subset": "LEFT;RIGHT"}}, {"DEC": "VSLOC", "ClibRef": {"self": {"href": "/mdr/sdtmig/3-2/datasets/VS/variables/VSLOC", "title": "Location of Vital Signs Measurement", "type": "SDTM Dataset Variable"}, "codelist": [{"href": "/mdr/root/ct/sdtmct/codelists/C74456", "title": "Version-agnostic anchor resource for codelist C74456", "type": "Root Value Domain"}]}, "CDVal": {"subset": "LEG;CALF;FINGER"}}, {"DEC": "VSDT", "ClibRef": {"self": {"href": "/mdr/sdtmig/3-2/datasets/VS/variables/VSDTC", "title": "Date/Time of Measurements", "type": "SDTM Dataset Variable"}}, "cdType": "ISO 8601"}, {"DEC": "VSTEST", "ClibRef": {"self": {"href": "/mdr/sdtmig/3-2/datasets/VS/variables/VSTESTCD", "title": "Vital Signs Test Short Name", "type": "SDTM Dataset Variable"}, "codelist": [{"href": "/mdr/root/ct/sdtmct/codelists/C66741", "title": "Version-agnostic anchor resource for codelist C66741", "type": "Root Value Domain"}]}, "CDVal": {"value": "Diastolic Blood Pressure"}}, {"DEC": "VSSTRESN", "ClibRef": {"self": {"href": "/mdr/sdtmig/3-2/datasets/VS/variables/VSSTRESN", "title": "Numeric Result/Finding in Standard Units", "type": "SDTM Dataset Variable"}}, "cdType": "float", "origin": {"MappingType": "Computation", "Methods": [{"Description": "Convert WEIGHT_VSORRES from WEIGHT_VSORRESU units to standard units", "InputVariables": [{"Standard": "CDASH", "Domain": "VS", "VarName": "WEIGHT_VSORRES", "Value": null}], "Preferred": "Yes"}]}}, {"DEC": "VSTESTCD", "ClibRef": {"self": {"href": "/mdr/sdtmig/3-2/datasets/VS/variables/VSTESTCD", "title": "Vital Signs Test Short Name", "type": "SDTM Dataset Variable"}, "codelist": [{"href": "/mdr/root/ct/sdtmct/codelists/C66741", "title": "Version-agnostic anchor resource for codelist C66741", "type": "Root Value Domain"}]}, "CDVal": {"value": "DIABP"}}, {"DEC": "VSSTRESU", "ClibRef": {"self": {"href": "/mdr/sdtmig/3-2/datasets/VS/variables/VSSTRESU", "title": "Standard Units", "type": "SDTM Dataset Variable"}, "codelist": [{"href": "/mdr/root/ct/sdtmct/codelists/C66770", "title": "Version-agnostic anchor resource for codelist C66770", "type": "Root Value Domain"}]}, "CDVal": {"value": "mmHG"}}]}]}